participant_id,condition,trial_number,scenario_id,ai_recommendation,ai_is_correct,correct_answer,participant_decision,participant_override,confidence_rating,decision_latency_ms,total_trial_duration_ms,ai_confidence_display,timestamp
P-94DD6B17,control,3,s14,reject,True,reject,accept,,5,10437,14425,,2026-03-22T05:07:14
P-94DD6B17,control,4,s17,reject,True,reject,accept,,5,6679,10212,,2026-03-22T05:07:56
P-94DD6B17,control,5,s13,approve,True,approve,accept,,5,6311,7637,,2026-03-22T05:08:37
P-94DD6B17,control,6,s11,reject,True,reject,accept,,3,6317,8772,,2026-03-22T05:09:21
P-94DD6B17,control,7,s18,reject,False,approve,override,approve,3,5729,7429,,2026-03-22T05:10:17
P-94DD6B17,control,8,s04,approve,True,approve,accept,,4,6723,7952,,2026-03-22T05:10:52
P-94DD6B17,control,9,s15,reject,False,approve,accept,,3,3617,6940,,2026-03-22T05:11:40
P-94DD6B17,control,10,s08,reject,True,reject,override,approve,1,15510,17081,,2026-03-22T05:12:22
P-94DD6B17,control,11,s21,reject,True,reject,override,approve,4,6198,8833,,2026-03-22T05:13:11
P-94DD6B17,control,12,s05,approve,True,approve,accept,,5,18705,20154,,2026-03-22T05:13:49
P-94DD6B17,control,13,s20,reject,False,approve,override,approve,2,6086,9526,,2026-03-22T05:14:44
P-94DD6B17,control,14,s07,approve,True,approve,override,reject,3,9161,10630,,2026-03-22T05:15:32
P-94DD6B17,control,15,s12,reject,True,reject,accept,,4,3367,6225,,2026-03-22T05:16:00
P-94DD6B17,control,16,s22,reject,False,approve,accept,,4,6746,8181,,2026-03-22T05:17:05
P-94DD6B17,control,17,s06,approve,True,approve,override,reject,2,16360,18021,,2026-03-22T05:17:47
P-97DEE2B3,control,3,s20,reject,False,approve,accept,,3,9231,12971,,2026-03-16T06:05:15
P-97DEE2B3,control,4,s08,approve,True,approve,accept,,4,7465,9460,,2026-03-16T06:06:00
P-97DEE2B3,control,5,s13,approve,True,approve,override,reject,2,15795,18478,,2026-03-16T06:06:44
P-97DEE2B3,control,6,s15,approve,True,approve,override,reject,1,5848,8497,,2026-03-16T06:07:25
P-97DEE2B3,control,7,s10,approve,True,approve,override,reject,3,11070,13798,,2026-03-16T06:08:05
P-97DEE2B3,control,8,s03,approve,True,approve,accept,,5,9337,12591,,2026-03-16T06:08:48
P-97DEE2B3,control,9,s18,reject,False,approve,accept,,5,15222,16903,,2026-03-16T06:09:43
P-97DEE2B3,control,10,s19,approve,True,approve,accept,,3,12769,13777,,2026-03-16T06:10:27
P-97DEE2B3,control,11,s21,approve,False,reject,accept,,4,7482,10758,,2026-03-16T06:11:15
P-97DEE2B3,control,12,s14,reject,True,reject,accept,,4,8709,9958,,2026-03-16T06:11:55
P-97DEE2B3,control,13,s04,reject,True,reject,accept,,3,2629,5709,,2026-03-16T06:12:32
P-97DEE2B3,control,14,s16,approve,True,approve,override,reject,2,6212,7703,,2026-03-16T06:13:33
P-97DEE2B3,control,15,s22,approve,True,approve,accept,,4,6211,9352,,2026-03-16T06:14:10
P-97DEE2B3,control,16,s11,approve,True,approve,override,reject,2,9412,10948,,2026-03-16T06:15:05
P-97DEE2B3,control,17,s17,approve,False,reject,accept,,1,14841,18385,,2026-03-16T06:15:48
P-E96919DA,control,3,s09,reject,True,reject,accept,,3,8614,11423,,2026-03-20T02:53:17
P-E96919DA,control,4,s06,approve,True,approve,accept,,4,4799,7311,,2026-03-20T02:54:03
P-E96919DA,control,5,s08,reject,True,reject,accept,,5,7469,8632,,2026-03-20T02:54:41
P-E96919DA,control,6,s22,reject,True,reject,accept,,5,10701,12334,,2026-03-20T02:55:22
P-E96919DA,control,7,s11,reject,True,reject,accept,,1,2333,4693,,2026-03-20T02:56:13
P-E96919DA,control,8,s20,approve,False,reject,override,reject,2,3673,7545,,2026-03-20T02:56:48
P-E96919DA,control,9,s13,approve,True,approve,accept,,5,9067,11952,,2026-03-20T02:57:41
P-E96919DA,control,10,s19,reject,False,approve,accept,,4,13525,16157,,2026-03-20T02:58:25
P-E96919DA,control,11,s05,reject,True,reject,override,approve,3,12504,15141,,2026-03-20T02:59:17
P-E96919DA,control,12,s12,approve,False,reject,override,reject,2,11854,13941,,2026-03-20T02:59:46
P-E96919DA,control,13,s17,reject,True,reject,accept,,4,10517,13611,,2026-03-20T03:00:33
P-E96919DA,control,14,s04,reject,True,reject,accept,,1,11097,14302,,2026-03-20T03:01:21
P-E96919DA,control,15,s15,reject,True,reject,override,approve,3,12168,15885,,2026-03-20T03:02:03
P-E96919DA,control,16,s03,approve,False,reject,accept,,3,6010,9865,,2026-03-20T03:02:54
P-E96919DA,control,17,s16,reject,True,reject,override,approve,3,10195,11907,,2026-03-20T03:03:49
P-DFEAB985,control,3,s14,reject,True,reject,accept,,5,10659,13528,,2026-03-20T20:30:04
P-DFEAB985,control,4,s15,reject,True,reject,override,approve,3,18865,22811,,2026-03-20T20:31:01
P-DFEAB985,control,5,s20,reject,True,reject,accept,,4,12452,14513,,2026-03-20T20:31:37
P-DFEAB985,control,6,s11,reject,True,reject,override,approve,3,11519,13643,,2026-03-20T20:32:29
P-DFEAB985,control,7,s07,approve,False,reject,accept,,5,8764,10094,,2026-03-20T20:33:04
P-DFEAB985,control,8,s05,reject,True,reject,accept,,2,6879,9548,,2026-03-20T20:33:55
P-DFEAB985,control,9,s10,reject,True,reject,override,approve,2,17869,21261,,2026-03-20T20:34:30
P-DFEAB985,control,10,s04,reject,True,reject,override,approve,2,1950,4547,,2026-03-20T20:35:28
P-DFEAB985,control,11,s16,approve,True,approve,accept,,4,6111,8703,,2026-03-20T20:36:10
P-DFEAB985,control,12,s03,reject,True,reject,override,approve,4,9842,13390,,2026-03-20T20:37:02
P-DFEAB985,control,13,s22,reject,True,reject,accept,,2,4792,7547,,2026-03-20T20:37:34
P-DFEAB985,control,14,s12,approve,True,approve,override,reject,2,14667,17005,,2026-03-20T20:38:25
P-DFEAB985,control,15,s17,approve,False,reject,override,reject,3,9356,10691,,2026-03-20T20:39:15
P-DFEAB985,control,16,s13,reject,False,approve,accept,,4,11284,14953,,2026-03-20T20:39:46
P-DFEAB985,control,17,s21,reject,False,approve,override,approve,2,11297,12814,,2026-03-20T20:40:45
P-DCEFEE05,control,3,s07,approve,False,reject,override,reject,3,7027,10231,,2026-03-23T17:52:15
P-DCEFEE05,control,4,s20,reject,True,reject,override,approve,4,12645,13999,,2026-03-23T17:52:53
P-DCEFEE05,control,5,s17,approve,False,reject,accept,,3,6981,10005,,2026-03-23T17:53:40
P-DCEFEE05,control,6,s03,reject,True,reject,override,approve,2,13499,16940,,2026-03-23T17:54:23
P-DCEFEE05,control,7,s18,approve,True,approve,accept,,4,7257,10258,,2026-03-23T17:55:17
P-DCEFEE05,control,8,s06,approve,False,reject,override,reject,3,5083,6153,,2026-03-23T17:55:47
P-DCEFEE05,control,9,s04,reject,True,reject,accept,,4,11436,14610,,2026-03-23T17:56:41
P-DCEFEE05,control,10,s10,reject,True,reject,accept,,3,10740,12769,,2026-03-23T17:57:22
P-DCEFEE05,control,11,s14,approve,True,approve,accept,,3,9849,12832,,2026-03-23T17:58:08
P-DCEFEE05,control,12,s08,approve,False,reject,override,reject,4,1950,3745,,2026-03-23T17:58:54
P-DCEFEE05,control,13,s21,approve,True,approve,accept,,3,10367,11590,,2026-03-23T17:59:47
P-DCEFEE05,control,14,s16,reject,True,reject,override,approve,1,20088,21138,,2026-03-23T18:00:33
P-DCEFEE05,control,15,s19,approve,True,approve,accept,,3,11844,14800,,2026-03-23T18:01:03
P-DCEFEE05,control,16,s05,approve,True,approve,accept,,3,5770,9075,,2026-03-23T18:01:54
P-DCEFEE05,control,17,s22,reject,True,reject,accept,,4,9655,13188,,2026-03-23T18:02:37
P-994939F9,control,3,s17,approve,True,approve,accept,,2,13211,14890,,2026-03-23T13:13:09
P-994939F9,control,4,s07,reject,True,reject,override,approve,2,6979,9627,,2026-03-23T13:13:53
P-994939F9,control,5,s14,reject,True,reject,accept,,5,4755,7075,,2026-03-23T13:14:49
P-994939F9,control,6,s15,approve,True,approve,accept,,5,9093,12497,,2026-03-23T13:15:15
P-994939F9,control,7,s21,approve,False,reject,override,reject,2,5175,8300,,2026-03-23T13:16:20
P-994939F9,control,8,s06,reject,True,reject,accept,,4,10161,13175,,2026-03-23T13:16:47
P-994939F9,control,9,s04,approve,False,reject,accept,,5,6266,8616,,2026-03-23T13:17:43
P-994939F9,control,10,s19,reject,True,reject,accept,,5,6915,8065,,2026-03-23T13:18:29
P-994939F9,control,11,s03,approve,False,reject,accept,,4,4967,8074,,2026-03-23T13:19:00
P-994939F9,control,12,s12,reject,True,reject,accept,,3,6846,9887,,2026-03-23T13:20:05
P-994939F9,control,13,s11,approve,True,approve,accept,,5,9589,12383,,2026-03-23T13:20:45
P-994939F9,control,14,s05,reject,False,approve,accept,,1,7852,10523,,2026-03-23T13:21:17
P-994939F9,control,15,s22,approve,True,approve,accept,,5,7044,10085,,2026-03-23T13:22:09
P-994939F9,control,16,s16,reject,True,reject,accept,,4,5530,8400,,2026-03-23T13:23:02
P-994939F9,control,17,s18,approve,True,approve,accept,,5,11652,12937,,2026-03-23T13:23:38
P-51E9B5F9,control,3,s15,approve,True,approve,accept,,4,12363,16044,,2026-03-24T15:09:04
P-51E9B5F9,control,4,s18,approve,False,reject,accept,,4,10870,13215,,2026-03-24T15:10:02
P-51E9B5F9,control,5,s03,reject,True,reject,override,approve,4,13379,14526,,2026-03-24T15:10:49
P-51E9B5F9,control,6,s12,approve,True,approve,override,reject,3,13344,16121,,2026-03-24T15:11:18
P-51E9B5F9,control,7,s06,approve,True,approve,accept,,4,3829,4947,,2026-03-24T15:12:01
P-51E9B5F9,control,8,s21,reject,True,reject,accept,,2,9410,12585,,2026-03-24T15:12:58
P-51E9B5F9,control,9,s08,approve,True,approve,accept,,4,6358,8924,,2026-03-24T15:13:49
P-51E9B5F9,control,10,s17,approve,True,approve,accept,,4,5285,7325,,2026-03-24T15:14:29
P-51E9B5F9,control,11,s09,reject,True,reject,override,approve,3,11585,13232,,2026-03-24T15:15:02
P-51E9B5F9,control,12,s14,approve,False,reject,override,reject,3,12334,15205,,2026-03-24T15:15:54
P-51E9B5F9,control,13,s20,reject,False,approve,accept,,3,11307,13777,,2026-03-24T15:16:48
P-51E9B5F9,control,14,s13,reject,True,reject,accept,,3,12958,16276,,2026-03-24T15:17:16
P-51E9B5F9,control,15,s04,approve,False,reject,override,reject,4,7615,9557,,2026-03-24T15:18:19
P-51E9B5F9,control,16,s22,reject,True,reject,accept,,4,6501,10453,,2026-03-24T15:18:49
P-51E9B5F9,control,17,s05,reject,True,reject,override,approve,4,4966,6102,,2026-03-24T15:19:48
P-F8AAE1BD,control,3,s03,reject,False,approve,override,approve,3,7727,11598,,2026-03-18T07:53:09
P-F8AAE1BD,control,4,s04,approve,True,approve,override,reject,2,17070,20087,,2026-03-18T07:53:48
P-F8AAE1BD,control,5,s16,approve,True,approve,accept,,5,6289,10141,,2026-03-18T07:54:47
P-F8AAE1BD,control,6,s11,reject,False,approve,accept,,5,11790,15311,,2026-03-18T07:55:28
P-F8AAE1BD,control,7,s18,reject,True,reject,override,approve,3,14722,16689,,2026-03-18T07:56:11
P-F8AAE1BD,control,8,s17,reject,True,reject,accept,,3,1500,4130,,2026-03-18T07:56:53
P-F8AAE1BD,control,9,s19,approve,True,approve,accept,,2,13809,15677,,2026-03-18T07:57:50
P-F8AAE1BD,control,10,s10,approve,True,approve,override,reject,4,14387,17699,,2026-03-18T07:58:21
P-F8AAE1BD,control,11,s08,reject,False,approve,accept,,3,3795,5399,,2026-03-18T07:59:19
P-F8AAE1BD,control,12,s14,approve,True,approve,accept,,5,12228,13678,,2026-03-18T07:59:45
P-F8AAE1BD,control,13,s06,reject,True,reject,accept,,3,9049,10762,,2026-03-18T08:00:38
P-F8AAE1BD,control,14,s22,approve,False,reject,accept,,4,3602,6084,,2026-03-18T08:01:31
P-F8AAE1BD,control,15,s13,reject,True,reject,accept,,1,1500,5198,,2026-03-18T08:02:16
P-F8AAE1BD,control,16,s20,approve,True,approve,accept,,4,11678,15488,,2026-03-18T08:02:48
P-F8AAE1BD,control,17,s21,reject,True,reject,accept,,4,9602,10871,,2026-03-18T08:03:34
P-73DBF156,control,3,s19,approve,True,approve,accept,,4,6508,10233,,2026-03-23T21:44:13
P-73DBF156,control,4,s21,reject,True,reject,override,approve,2,6455,9822,,2026-03-23T21:45:01
P-73DBF156,control,5,s18,reject,False,approve,accept,,3,12767,16045,,2026-03-23T21:45:41
P-73DBF156,control,6,s22,reject,True,reject,accept,,5,10101,13647,,2026-03-23T21:46:34
P-73DBF156,control,7,s07,reject,True,reject,override,approve,1,6617,8736,,2026-03-23T21:47:09
P-73DBF156,control,8,s03,approve,True,approve,accept,,4,7179,9820,,2026-03-23T21:47:47
P-73DBF156,control,9,s15,reject,False,approve,accept,,3,11805,14663,,2026-03-23T21:48:40
P-73DBF156,control,10,s05,approve,True,approve,accept,,5,10666,12303,,2026-03-23T21:49:20
P-73DBF156,control,11,s14,reject,True,reject,accept,,4,7541,10530,,2026-03-23T21:50:19
P-73DBF156,control,12,s13,approve,True,approve,override,reject,2,12158,13612,,2026-03-23T21:50:54
P-73DBF156,control,13,s04,reject,True,reject,accept,,1,4879,7497,,2026-03-23T21:51:49
P-73DBF156,control,14,s10,reject,False,approve,override,approve,4,11939,14124,,2026-03-23T21:52:25
P-73DBF156,control,15,s12,approve,True,approve,accept,,3,10908,14790,,2026-03-23T21:53:07
P-73DBF156,control,16,s16,reject,False,approve,override,approve,2,11037,12210,,2026-03-23T21:53:58
P-73DBF156,control,17,s17,reject,True,reject,accept,,4,9294,13200,,2026-03-23T21:54:50
P-9EDF1A0E,control,3,s19,approve,False,reject,override,reject,2,14653,15932,,2026-03-18T00:27:15
P-9EDF1A0E,control,4,s14,reject,True,reject,accept,,3,9651,10954,,2026-03-18T00:27:54
P-9EDF1A0E,control,5,s09,approve,True,approve,accept,,2,13805,15174,,2026-03-18T00:28:49
P-9EDF1A0E,control,6,s16,approve,False,reject,override,reject,4,6227,7395,,2026-03-18T00:29:29
P-9EDF1A0E,control,7,s12,approve,True,approve,override,reject,2,9124,10377,,2026-03-18T00:30:14
P-9EDF1A0E,control,8,s03,approve,False,reject,accept,,4,9751,10911,,2026-03-18T00:30:52
P-9EDF1A0E,control,9,s15,reject,True,reject,override,approve,2,5760,7918,,2026-03-18T00:31:42
P-9EDF1A0E,control,10,s04,reject,True,reject,accept,,4,8074,10444,,2026-03-18T00:32:17
P-9EDF1A0E,control,11,s21,reject,True,reject,accept,,4,7475,10943,,2026-03-18T00:33:04
P-9EDF1A0E,control,12,s06,approve,True,approve,accept,,4,10739,14451,,2026-03-18T00:33:57
P-9EDF1A0E,control,13,s13,reject,False,approve,accept,,5,7433,8956,,2026-03-18T00:34:46
P-9EDF1A0E,control,14,s17,reject,True,reject,accept,,3,7925,9802,,2026-03-18T00:35:25
P-9EDF1A0E,control,15,s08,reject,True,reject,override,approve,2,17468,19679,,2026-03-18T00:36:03
P-9EDF1A0E,control,16,s20,approve,True,approve,accept,,4,5276,8722,,2026-03-18T00:36:57
P-9EDF1A0E,control,17,s18,approve,True,approve,accept,,5,11019,12697,,2026-03-18T00:37:44
P-6D93D9A2,control,3,s18,reject,True,reject,override,approve,4,9556,10665,,2026-03-24T01:50:13
P-6D93D9A2,control,4,s19,reject,False,approve,accept,,3,9663,10778,,2026-03-24T01:50:55
P-6D93D9A2,control,5,s13,approve,True,approve,accept,,2,6084,8259,,2026-03-24T01:51:45
P-6D93D9A2,control,6,s16,reject,True,reject,override,approve,3,9038,10362,,2026-03-24T01:52:15
P-6D93D9A2,control,7,s09,approve,False,reject,override,reject,1,18447,20627,,2026-03-24T01:53:07
P-6D93D9A2,control,8,s04,reject,True,reject,accept,,2,9390,12437,,2026-03-24T01:54:04
P-6D93D9A2,control,9,s15,approve,True,approve,override,reject,2,9811,10817,,2026-03-24T01:54:49
P-6D93D9A2,control,10,s06,approve,True,approve,accept,,4,11615,14092,,2026-03-24T01:55:17
P-6D93D9A2,control,11,s11,reject,False,approve,override,approve,2,9638,12563,,2026-03-24T01:56:01
P-6D93D9A2,control,12,s17,approve,True,approve,accept,,3,2139,3415,,2026-03-24T01:56:56
P-6D93D9A2,control,13,s08,reject,True,reject,accept,,2,12882,15325,,2026-03-24T01:57:47
P-6D93D9A2,control,14,s05,reject,True,reject,override,approve,4,15801,18761,,2026-03-24T01:58:35
P-6D93D9A2,control,15,s07,reject,True,reject,override,approve,1,12961,14786,,2026-03-24T01:59:01
P-6D93D9A2,control,16,s03,approve,False,reject,accept,,4,2457,5681,,2026-03-24T02:00:00
P-6D93D9A2,control,17,s20,reject,True,reject,accept,,5,13518,14713,,2026-03-24T02:00:50
P-FADEFD33,control,3,s13,approve,True,approve,override,reject,3,14461,15978,,2026-03-23T22:33:02
P-FADEFD33,control,4,s21,reject,True,reject,accept,,1,3751,5379,,2026-03-23T22:33:59
P-FADEFD33,control,5,s19,reject,True,reject,override,approve,1,9584,12087,,2026-03-23T22:34:42
P-FADEFD33,control,6,s16,reject,True,reject,accept,,4,8503,11547,,2026-03-23T22:35:31
P-FADEFD33,control,7,s11,approve,True,approve,accept,,4,8327,11833,,2026-03-23T22:36:09
P-FADEFD33,control,8,s08,reject,True,reject,accept,,2,8998,10705,,2026-03-23T22:36:59
P-FADEFD33,control,9,s12,approve,False,reject,override,reject,3,8022,10211,,2026-03-23T22:37:39
P-FADEFD33,control,10,s09,approve,True,approve,override,reject,1,12309,14132,,2026-03-23T22:38:19
P-FADEFD33,control,11,s15,reject,True,reject,accept,,3,12260,15519,,2026-03-23T22:39:04
P-FADEFD33,control,12,s07,reject,False,approve,override,approve,3,14648,17608,,2026-03-23T22:40:01
P-FADEFD33,control,13,s18,reject,True,reject,accept,,5,9022,12653,,2026-03-23T22:40:32
P-FADEFD33,control,14,s14,approve,False,reject,accept,,4,12402,15809,,2026-03-23T22:41:20
P-FADEFD33,control,15,s22,approve,True,approve,accept,,2,2487,3995,,2026-03-23T22:42:16
P-FADEFD33,control,16,s06,reject,False,approve,accept,,3,12182,15307,,2026-03-23T22:42:54
P-FADEFD33,control,17,s05,reject,True,reject,accept,,3,10985,14545,,2026-03-23T22:43:39
P-A4B173F2,control,3,s03,approve,True,approve,override,reject,4,3342,6451,,2026-03-19T00:53:17
P-A4B173F2,control,4,s11,reject,True,reject,accept,,3,9880,11276,,2026-03-19T00:53:46
P-A4B173F2,control,5,s15,approve,True,approve,accept,,5,11360,13014,,2026-03-19T00:54:40
P-A4B173F2,control,6,s08,reject,False,approve,accept,,4,6561,9669,,2026-03-19T00:55:29
P-A4B173F2,control,7,s18,reject,True,reject,accept,,4,8520,10506,,2026-03-19T00:56:06
P-A4B173F2,control,8,s06,reject,True,reject,accept,,3,8026,9059,,2026-03-19T00:56:48
P-A4B173F2,control,9,s16,reject,True,reject,override,approve,2,14443,17083,,2026-03-19T00:57:31
P-A4B173F2,control,10,s10,approve,True,approve,accept,,3,7656,10500,,2026-03-19T00:58:32
P-A4B173F2,control,11,s12,approve,True,approve,override,reject,1,22569,23965,,2026-03-19T00:59:12
P-A4B173F2,control,12,s05,approve,False,reject,override,reject,4,19253,21068,,2026-03-19T01:00:04
P-A4B173F2,control,13,s19,approve,True,approve,accept,,4,8297,11237,,2026-03-19T01:00:46
P-A4B173F2,control,14,s13,approve,False,reject,override,reject,4,12470,14774,,2026-03-19T01:01:20
P-A4B173F2,control,15,s14,reject,True,reject,override,approve,3,14413,17500,,2026-03-19T01:02:17
P-A4B173F2,control,16,s21,approve,True,approve,accept,,3,8746,12505,,2026-03-19T01:02:48
P-A4B173F2,control,17,s20,reject,False,approve,override,approve,3,10398,12485,,2026-03-19T01:03:50
P-0637F846,control,3,s07,approve,False,reject,accept,,3,9767,11950,,2026-03-15T18:36:06
P-0637F846,control,4,s13,reject,True,reject,accept,,5,7363,11318,,2026-03-15T18:36:53
P-0637F846,control,5,s03,reject,True,reject,accept,,3,10883,12482,,2026-03-15T18:37:39
P-0637F846,control,6,s08,approve,True,approve,accept,,3,6654,9616,,2026-03-15T18:38:21
P-0637F846,control,7,s14,approve,False,reject,accept,,2,12726,16247,,2026-03-15T18:39:18
P-0637F846,control,8,s05,approve,True,approve,accept,,4,6718,7933,,2026-03-15T18:39:48
P-0637F846,control,9,s04,approve,False,reject,override,reject,1,16451,19705,,2026-03-15T18:40:35
P-0637F846,control,10,s20,reject,True,reject,accept,,5,6518,8833,,2026-03-15T18:41:24
P-0637F846,control,11,s21,approve,True,approve,accept,,4,7243,8395,,2026-03-15T18:42:05
P-0637F846,control,12,s15,approve,True,approve,accept,,5,9246,12275,,2026-03-15T18:42:50
P-0637F846,control,13,s06,reject,True,reject,override,approve,3,11429,12868,,2026-03-15T18:43:40
P-0637F846,control,14,s09,reject,True,reject,accept,,4,9736,11853,,2026-03-15T18:44:21
P-0637F846,control,15,s12,reject,True,reject,override,approve,2,13308,15070,,2026-03-15T18:45:00
P-0637F846,control,16,s10,reject,True,reject,accept,,3,3902,7518,,2026-03-15T18:45:57
P-0637F846,control,17,s17,approve,False,reject,override,reject,2,16010,17585,,2026-03-15T18:46:45
P-C26BD0D4,control,3,s08,approve,True,approve,accept,,2,7913,11156,,2026-03-18T04:41:16
P-C26BD0D4,control,4,s07,approve,False,reject,accept,,2,12054,13895,,2026-03-18T04:42:03
P-C26BD0D4,control,5,s10,reject,False,approve,override,approve,3,11635,14737,,2026-03-18T04:42:43
P-C26BD0D4,control,6,s06,reject,True,reject,accept,,4,8777,11398,,2026-03-18T04:43:23
P-C26BD0D4,control,7,s13,approve,True,approve,accept,,4,3961,7829,,2026-03-18T04:44:02
P-C26BD0D4,control,8,s19,approve,False,reject,override,reject,1,10697,13371,,2026-03-18T04:44:50
P-C26BD0D4,control,9,s21,reject,True,reject,override,approve,2,4451,7017,,2026-03-18T04:45:44
P-C26BD0D4,control,10,s12,approve,True,approve,accept,,4,3725,6149,,2026-03-18T04:46:18
P-C26BD0D4,control,11,s04,approve,True,approve,accept,,5,11854,12947,,2026-03-18T04:47:09
P-C26BD0D4,control,12,s05,reject,True,reject,accept,,5,9601,11614,,2026-03-18T04:47:59
P-C26BD0D4,control,13,s11,approve,True,approve,override,reject,1,13626,17330,,2026-03-18T04:48:43
P-C26BD0D4,control,14,s18,approve,True,approve,override,reject,2,5001,6414,,2026-03-18T04:49:34
P-C26BD0D4,control,15,s17,approve,True,approve,accept,,3,9347,10528,,2026-03-18T04:50:12
P-C26BD0D4,control,16,s03,reject,False,approve,override,approve,1,12867,15051,,2026-03-18T04:50:52
P-C26BD0D4,control,17,s16,reject,True,reject,accept,,3,4044,5630,,2026-03-18T04:51:46
P-7EC8DF17,control,3,s11,reject,False,approve,override,approve,3,14647,15808,,2026-03-22T06:42:02
P-7EC8DF17,control,4,s17,reject,False,approve,accept,,3,2496,3558,,2026-03-22T06:42:51
P-7EC8DF17,control,5,s22,approve,True,approve,override,reject,4,10921,14770,,2026-03-22T06:43:49
P-7EC8DF17,control,6,s12,reject,True,reject,override,approve,4,15306,17865,,2026-03-22T06:44:29
P-7EC8DF17,control,7,s08,reject,True,reject,accept,,5,7483,10391,,2026-03-22T06:45:03
P-7EC8DF17,control,8,s19,reject,True,reject,override,approve,2,11299,13580,,2026-03-22T06:45:58
P-7EC8DF17,control,9,s18,approve,True,approve,accept,,4,8470,11862,,2026-03-22T06:46:48
P-7EC8DF17,control,10,s15,reject,True,reject,override,approve,2,13057,15063,,2026-03-22T06:47:30
P-7EC8DF17,control,11,s09,reject,True,reject,accept,,5,8243,11871,,2026-03-22T06:48:15
P-7EC8DF17,control,12,s06,reject,True,reject,accept,,4,10826,14046,,2026-03-22T06:49:05
P-7EC8DF17,control,13,s20,reject,False,approve,override,approve,4,11862,13060,,2026-03-22T06:49:30
P-7EC8DF17,control,14,s10,approve,True,approve,accept,,3,10062,12929,,2026-03-22T06:50:26
P-7EC8DF17,control,15,s14,reject,True,reject,accept,,4,8211,10895,,2026-03-22T06:51:00
P-7EC8DF17,control,16,s04,approve,False,reject,accept,,4,6095,9953,,2026-03-22T06:51:58
P-7EC8DF17,control,17,s21,approve,True,approve,override,reject,1,12422,14208,,2026-03-22T06:52:49
P-385CC7D2,control,3,s14,approve,True,approve,accept,,4,13781,17700,,2026-03-18T14:43:12
P-385CC7D2,control,4,s08,reject,True,reject,accept,,4,7406,10620,,2026-03-18T14:43:55
P-385CC7D2,control,5,s10,approve,True,approve,override,reject,3,15315,17731,,2026-03-18T14:44:31
P-385CC7D2,control,6,s18,reject,True,reject,accept,,5,9755,12091,,2026-03-18T14:45:15
P-385CC7D2,control,7,s05,approve,True,approve,accept,,3,4582,7119,,2026-03-18T14:46:13
P-385CC7D2,control,8,s16,reject,True,reject,accept,,5,12163,16083,,2026-03-18T14:46:47
P-385CC7D2,control,9,s13,approve,True,approve,override,reject,3,12161,14458,,2026-03-18T14:47:41
P-385CC7D2,control,10,s15,reject,True,reject,accept,,5,8690,10108,,2026-03-18T14:48:19
P-385CC7D2,control,11,s21,approve,False,reject,accept,,2,10161,11528,,2026-03-18T14:49:11
P-385CC7D2,control,12,s12,reject,True,reject,override,approve,1,9292,11986,,2026-03-18T14:49:57
P-385CC7D2,control,13,s11,reject,False,approve,override,approve,3,4889,6583,,2026-03-18T14:50:42
P-385CC7D2,control,14,s09,approve,True,approve,accept,,2,10577,13357,,2026-03-18T14:51:23
P-385CC7D2,control,15,s17,reject,True,reject,accept,,5,10142,14094,,2026-03-18T14:52:20
P-385CC7D2,control,16,s07,reject,False,approve,override,approve,2,11191,13811,,2026-03-18T14:52:55
P-385CC7D2,control,17,s06,approve,False,reject,override,reject,2,7850,11516,,2026-03-18T14:53:49
P-A0A7AB4E,control,3,s21,reject,True,reject,override,approve,2,4409,7608,,2026-03-21T13:50:19
P-A0A7AB4E,control,4,s20,approve,True,approve,override,reject,3,13326,15007,,2026-03-21T13:51:05
P-A0A7AB4E,control,5,s08,reject,True,reject,accept,,5,11134,12567,,2026-03-21T13:51:30
P-A0A7AB4E,control,6,s14,approve,True,approve,accept,,4,4879,8235,,2026-03-21T13:52:22
P-A0A7AB4E,control,7,s19,reject,True,reject,accept,,4,4095,5712,,2026-03-21T13:53:11
P-A0A7AB4E,control,8,s03,reject,True,reject,override,approve,4,14251,15726,,2026-03-21T13:53:49
P-A0A7AB4E,control,9,s16,approve,False,reject,accept,,4,6537,9487,,2026-03-21T13:54:33
P-A0A7AB4E,control,10,s17,approve,False,reject,accept,,5,7436,8907,,2026-03-21T13:55:15
P-A0A7AB4E,control,11,s09,approve,True,approve,override,reject,4,10016,12015,,2026-03-21T13:56:16
P-A0A7AB4E,control,12,s18,reject,False,approve,accept,,4,6959,9618,,2026-03-21T13:57:05
P-A0A7AB4E,control,13,s05,approve,False,reject,accept,,5,4612,7453,,2026-03-21T13:57:48
P-A0A7AB4E,control,14,s22,approve,True,approve,accept,,5,7928,9184,,2026-03-21T13:58:33
P-A0A7AB4E,control,15,s04,approve,True,approve,accept,,2,7178,10925,,2026-03-21T13:59:15
P-A0A7AB4E,control,16,s15,reject,True,reject,accept,,4,5117,7542,,2026-03-21T13:59:56
P-A0A7AB4E,control,17,s11,approve,True,approve,override,reject,2,13429,16945,,2026-03-21T14:00:48
P-FCD5108B,control,3,s06,approve,True,approve,accept,,3,6363,9565,,2026-03-16T21:36:09
P-FCD5108B,control,4,s11,reject,True,reject,override,approve,3,14804,16267,,2026-03-16T21:37:03
P-FCD5108B,control,5,s10,approve,False,reject,override,reject,3,15479,16649,,2026-03-16T21:37:44
P-FCD5108B,control,6,s19,approve,True,approve,accept,,3,5891,7023,,2026-03-16T21:38:29
P-FCD5108B,control,7,s05,approve,True,approve,accept,,5,14453,16423,,2026-03-16T21:39:06
P-FCD5108B,control,8,s03,approve,False,reject,accept,,3,4792,6362,,2026-03-16T21:39:51
P-FCD5108B,control,9,s15,reject,True,reject,accept,,4,3498,5187,,2026-03-16T21:40:40
P-FCD5108B,control,10,s18,approve,True,approve,accept,,2,8171,10856,,2026-03-16T21:41:16
P-FCD5108B,control,11,s04,reject,False,approve,accept,,3,8215,12128,,2026-03-16T21:42:10
P-FCD5108B,control,12,s17,reject,True,reject,accept,,2,4025,7615,,2026-03-16T21:42:53
P-FCD5108B,control,13,s12,approve,True,approve,accept,,4,6406,8545,,2026-03-16T21:43:41
P-FCD5108B,control,14,s09,approve,True,approve,override,reject,3,12316,15193,,2026-03-16T21:44:35
P-FCD5108B,control,15,s16,reject,True,reject,accept,,3,6075,8834,,2026-03-16T21:45:06
P-FCD5108B,control,16,s14,reject,False,approve,accept,,4,8587,11574,,2026-03-16T21:45:55
P-FCD5108B,control,17,s08,reject,True,reject,accept,,1,5362,7009,,2026-03-16T21:46:44
P-0FE954B1,control,3,s16,approve,False,reject,accept,,5,9694,11239,,2026-03-16T07:23:20
P-0FE954B1,control,4,s20,approve,True,approve,override,reject,3,15613,17285,,2026-03-16T07:23:59
P-0FE954B1,control,5,s04,approve,True,approve,accept,,4,7308,11120,,2026-03-16T07:24:44
P-0FE954B1,control,6,s17,approve,True,approve,override,reject,1,12755,16745,,2026-03-16T07:25:27
P-0FE954B1,control,7,s19,reject,True,reject,accept,,3,7850,9195,,2026-03-16T07:26:07
P-0FE954B1,control,8,s12,approve,False,reject,override,reject,4,12130,15826,,2026-03-16T07:26:54
P-0FE954B1,control,9,s14,approve,True,approve,accept,,2,8465,10445,,2026-03-16T07:27:45
P-0FE954B1,control,10,s22,reject,False,approve,accept,,4,4472,5521,,2026-03-16T07:28:26
P-0FE954B1,control,11,s13,approve,True,approve,override,reject,3,5401,8638,,2026-03-16T07:29:05
P-0FE954B1,control,12,s15,approve,True,approve,accept,,3,9615,10778,,2026-03-16T07:29:46
P-0FE954B1,control,13,s11,reject,True,reject,override,approve,3,5565,8266,,2026-03-16T07:30:43
P-0FE954B1,control,14,s03,approve,True,approve,override,reject,2,7974,9316,,2026-03-16T07:31:24
P-0FE954B1,control,15,s09,approve,True,approve,accept,,3,10220,13622,,2026-03-16T07:32:20
P-0FE954B1,control,16,s07,reject,False,approve,override,approve,4,9505,11482,,2026-03-16T07:32:46
P-0FE954B1,control,17,s06,reject,True,reject,accept,,2,11580,15308,,2026-03-16T07:33:35
P-8D2BAD70,control,3,s17,reject,True,reject,accept,,3,10133,11747,,2026-03-16T18:47:05
P-8D2BAD70,control,4,s14,reject,True,reject,accept,,3,6017,8033,,2026-03-16T18:47:58
P-8D2BAD70,control,5,s09,reject,True,reject,override,approve,1,9322,13079,,2026-03-16T18:48:31
P-8D2BAD70,control,6,s05,reject,True,reject,override,approve,1,17410,20315,,2026-03-16T18:49:24
P-8D2BAD70,control,7,s16,reject,True,reject,accept,,1,5940,7761,,2026-03-16T18:50:09
P-8D2BAD70,control,8,s11,approve,False,reject,override,reject,2,9753,12773,,2026-03-16T18:50:51
P-8D2BAD70,control,9,s13,approve,True,approve,override,reject,1,6173,8852,,2026-03-16T18:51:30
P-8D2BAD70,control,10,s10,approve,True,approve,override,reject,4,14626,15631,,2026-03-16T18:52:27
P-8D2BAD70,control,11,s19,approve,True,approve,accept,,4,4570,5815,,2026-03-16T18:53:04
P-8D2BAD70,control,12,s18,reject,True,reject,override,approve,3,9375,11900,,2026-03-16T18:53:59
P-8D2BAD70,control,13,s12,approve,True,approve,accept,,4,8298,10913,,2026-03-16T18:54:32
P-8D2BAD70,control,14,s04,reject,False,approve,override,approve,2,10285,12354,,2026-03-16T18:55:25
P-8D2BAD70,control,15,s15,reject,True,reject,override,approve,2,9302,11415,,2026-03-16T18:56:07
P-8D2BAD70,control,16,s07,reject,False,approve,override,approve,2,12236,13909,,2026-03-16T18:56:59
P-8D2BAD70,control,17,s22,reject,False,approve,override,approve,3,11892,14789,,2026-03-16T18:57:38
P-A001A73E,control,3,s10,reject,True,reject,accept,,5,8979,11337,,2026-03-19T05:25:03
P-A001A73E,control,4,s19,reject,True,reject,accept,,4,14971,18938,,2026-03-19T05:25:57
P-A001A73E,control,5,s12,approve,False,reject,accept,,3,7747,9513,,2026-03-19T05:26:38
P-A001A73E,control,6,s03,approve,True,approve,accept,,3,12570,14778,,2026-03-19T05:27:30
P-A001A73E,control,7,s04,approve,False,reject,accept,,2,10754,12570,,2026-03-19T05:28:20
P-A001A73E,control,8,s18,approve,True,approve,override,reject,4,6267,8833,,2026-03-19T05:28:56
P-A001A73E,control,9,s06,reject,True,reject,accept,,3,6341,8448,,2026-03-19T05:29:35
P-A001A73E,control,10,s20,approve,True,approve,accept,,3,13880,16812,,2026-03-19T05:30:31
P-A001A73E,control,11,s11,reject,False,approve,accept,,4,9859,11950,,2026-03-19T05:31:17
P-A001A73E,control,12,s13,approve,True,approve,override,reject,3,11884,14474,,2026-03-19T05:31:56
P-A001A73E,control,13,s22,reject,False,approve,override,approve,4,13390,17247,,2026-03-19T05:32:41
P-A001A73E,control,14,s09,approve,True,approve,override,reject,3,10002,11584,,2026-03-19T05:33:33
P-A001A73E,control,15,s21,reject,True,reject,override,approve,1,8710,9940,,2026-03-19T05:34:07
P-A001A73E,control,16,s15,approve,True,approve,accept,,5,8390,10215,,2026-03-19T05:34:49
P-A001A73E,control,17,s07,approve,True,approve,accept,,3,13548,14637,,2026-03-19T05:35:34
P-A3646175,control,3,s03,approve,True,approve,override,reject,2,10218,12526,,2026-03-16T11:21:05
P-A3646175,control,4,s11,reject,True,reject,override,approve,3,3485,5571,,2026-03-16T11:21:51
P-A3646175,control,5,s14,approve,True,approve,accept,,4,9624,10821,,2026-03-16T11:22:42
P-A3646175,control,6,s19,reject,True,reject,accept,,4,9684,12235,,2026-03-16T11:23:26
P-A3646175,control,7,s22,approve,True,approve,accept,,3,8104,9405,,2026-03-16T11:24:01
P-A3646175,control,8,s20,reject,False,approve,override,approve,2,14331,16868,,2026-03-16T11:24:50
P-A3646175,control,9,s17,approve,True,approve,override,reject,2,6172,9685,,2026-03-16T11:25:45
P-A3646175,control,10,s12,approve,False,reject,override,reject,2,7073,8487,,2026-03-16T11:26:25
P-A3646175,control,11,s15,approve,False,reject,override,reject,3,13483,15701,,2026-03-16T11:27:07
P-A3646175,control,12,s05,reject,True,reject,accept,,3,10198,12675,,2026-03-16T11:27:45
P-A3646175,control,13,s06,reject,True,reject,override,approve,2,12481,13586,,2026-03-16T11:28:36
P-A3646175,control,14,s08,reject,False,approve,accept,,3,10690,13318,,2026-03-16T11:29:30
P-A3646175,control,15,s07,reject,True,reject,accept,,3,8802,11364,,2026-03-16T11:30:11
P-A3646175,control,16,s10,reject,True,reject,accept,,3,9335,11435,,2026-03-16T11:31:03
P-A3646175,control,17,s09,approve,True,approve,accept,,4,10392,13609,,2026-03-16T11:31:43
P-45DFA3E0,control,3,s17,reject,True,reject,override,approve,3,11583,14989,,2026-03-18T14:05:16
P-45DFA3E0,control,4,s12,approve,True,approve,override,reject,3,9152,10562,,2026-03-18T14:05:48
P-45DFA3E0,control,5,s08,reject,False,approve,override,approve,4,12795,15478,,2026-03-18T14:06:38
P-45DFA3E0,control,6,s15,reject,True,reject,accept,,3,5446,8096,,2026-03-18T14:07:19
P-45DFA3E0,control,7,s07,reject,True,reject,override,approve,2,18994,20967,,2026-03-18T14:08:01
P-45DFA3E0,control,8,s09,reject,True,reject,override,approve,4,11677,13918,,2026-03-18T14:08:54
P-45DFA3E0,control,9,s03,approve,False,reject,accept,,5,11366,13299,,2026-03-18T14:09:34
P-45DFA3E0,control,10,s13,reject,True,reject,accept,,4,8896,12373,,2026-03-18T14:10:35
P-45DFA3E0,control,11,s20,reject,True,reject,accept,,4,9843,12958,,2026-03-18T14:11:11
P-45DFA3E0,control,12,s21,approve,True,approve,accept,,4,12822,15969,,2026-03-18T14:12:03
P-45DFA3E0,control,13,s05,approve,True,approve,accept,,2,9921,11056,,2026-03-18T14:12:44
P-45DFA3E0,control,14,s04,reject,True,reject,accept,,5,7824,10892,,2026-03-18T14:13:27
P-45DFA3E0,control,15,s06,reject,False,approve,override,approve,3,9833,12660,,2026-03-18T14:14:05
P-45DFA3E0,control,16,s18,approve,False,reject,override,reject,2,7957,10016,,2026-03-18T14:14:47
P-45DFA3E0,control,17,s19,reject,True,reject,accept,,5,14099,15976,,2026-03-18T14:15:37
P-B36B36AA,control,3,s13,reject,True,reject,accept,,3,3889,7007,,2026-03-16T19:41:07
P-B36B36AA,control,4,s08,approve,False,reject,override,reject,3,6890,10678,,2026-03-16T19:41:49
P-B36B36AA,control,5,s12,reject,True,reject,override,approve,4,5448,8105,,2026-03-16T19:42:42
P-B36B36AA,control,6,s03,approve,True,approve,override,reject,2,5908,9829,,2026-03-16T19:43:22
P-B36B36AA,control,7,s16,approve,False,reject,override,reject,3,5926,7622,,2026-03-16T19:44:17
P-B36B36AA,control,8,s22,reject,True,reject,accept,,4,9734,13023,,2026-03-16T19:44:50
P-B36B36AA,control,9,s04,approve,True,approve,accept,,3,6394,8651,,2026-03-16T19:45:43
P-B36B36AA,control,10,s10,reject,True,reject,accept,,4,5885,7367,,2026-03-16T19:46:30
P-B36B36AA,control,11,s07,reject,False,approve,accept,,4,9908,11704,,2026-03-16T19:47:16
P-B36B36AA,control,12,s11,reject,True,reject,accept,,2,11599,13216,,2026-03-16T19:47:49
P-B36B36AA,control,13,s18,reject,True,reject,override,approve,1,10877,14808,,2026-03-16T19:48:35
P-B36B36AA,control,14,s09,approve,True,approve,accept,,3,5088,6325,,2026-03-16T19:49:15
P-B36B36AA,control,15,s05,reject,False,approve,override,approve,3,11843,13203,,2026-03-16T19:50:04
P-B36B36AA,control,16,s20,reject,True,reject,accept,,3,5699,6853,,2026-03-16T19:51:02
P-B36B36AA,control,17,s17,reject,True,reject,accept,,5,11254,14429,,2026-03-16T19:51:36
P-72D8BDD5,control,3,s09,approve,True,approve,accept,,4,9920,11426,,2026-03-18T12:29:17
P-72D8BDD5,control,4,s03,approve,True,approve,accept,,1,9759,12482,,2026-03-18T12:29:48
P-72D8BDD5,control,5,s05,approve,False,reject,override,reject,3,6706,8135,,2026-03-18T12:30:46
P-72D8BDD5,control,6,s17,approve,True,approve,override,reject,3,9655,13149,,2026-03-18T12:31:21
P-72D8BDD5,control,7,s18,approve,True,approve,accept,,3,6567,9812,,2026-03-18T12:32:15
P-72D8BDD5,control,8,s21,approve,False,reject,override,reject,3,10909,12361,,2026-03-18T12:33:03
P-72D8BDD5,control,9,s20,approve,True,approve,override,reject,1,17491,21454,,2026-03-18T12:33:33
P-72D8BDD5,control,10,s14,approve,True,approve,override,reject,2,1950,3155,,2026-03-18T12:34:18
P-72D8BDD5,control,11,s06,approve,True,approve,override,reject,3,13257,16001,,2026-03-18T12:35:03
P-72D8BDD5,control,12,s15,approve,True,approve,accept,,4,10134,12480,,2026-03-18T12:35:56
P-72D8BDD5,control,13,s22,reject,True,reject,override,approve,4,12294,14043,,2026-03-18T12:36:33
P-72D8BDD5,control,14,s08,approve,False,reject,accept,,5,8094,10821,,2026-03-18T12:37:35
P-72D8BDD5,control,15,s12,approve,True,approve,override,reject,1,15613,17265,,2026-03-18T12:38:03
P-72D8BDD5,control,16,s07,reject,True,reject,accept,,3,9957,12512,,2026-03-18T12:38:56
P-72D8BDD5,control,17,s11,reject,False,approve,override,approve,4,6561,9366,,2026-03-18T12:39:31
P-AE2EFD98,control,3,s11,approve,True,approve,accept,,5,10045,12876,,2026-03-22T13:55:10
P-AE2EFD98,control,4,s20,approve,True,approve,accept,,4,10887,12033,,2026-03-22T13:56:02
P-AE2EFD98,control,5,s06,approve,False,reject,override,reject,4,8834,12137,,2026-03-22T13:56:36
P-AE2EFD98,control,6,s15,approve,True,approve,accept,,5,5765,8626,,2026-03-22T13:57:25
P-AE2EFD98,control,7,s12,approve,False,reject,override,reject,3,9048,10515,,2026-03-22T13:58:03
P-AE2EFD98,control,8,s08,reject,True,reject,accept,,4,6379,8910,,2026-03-22T13:58:48
P-AE2EFD98,control,9,s10,reject,True,reject,accept,,2,9009,12511,,2026-03-22T13:59:36
P-AE2EFD98,control,10,s18,reject,True,reject,accept,,5,14896,16676,,2026-03-22T14:00:25
P-AE2EFD98,control,11,s22,approve,True,approve,override,reject,4,13577,16422,,2026-03-22T14:01:14
P-AE2EFD98,control,12,s17,reject,True,reject,accept,,1,2203,3401,,2026-03-22T14:02:02
P-AE2EFD98,control,13,s19,approve,True,approve,accept,,4,6233,7944,,2026-03-22T14:02:34
P-AE2EFD98,control,14,s14,approve,False,reject,accept,,4,11160,13735,,2026-03-22T14:03:28
P-AE2EFD98,control,15,s03,approve,False,reject,override,reject,2,9934,12338,,2026-03-22T14:04:09
P-AE2EFD98,control,16,s05,reject,True,reject,accept,,5,8968,12211,,2026-03-22T14:04:55
P-AE2EFD98,control,17,s07,approve,True,approve,override,reject,2,2178,6104,,2026-03-22T14:05:39
P-9BBF6D5F,control,3,s19,approve,False,reject,accept,,3,8173,10879,,2026-03-19T20:43:10
P-9BBF6D5F,control,4,s04,approve,True,approve,override,reject,3,14007,16821,,2026-03-19T20:43:52
P-9BBF6D5F,control,5,s09,reject,True,reject,override,approve,3,11207,15176,,2026-03-19T20:44:36
P-9BBF6D5F,control,6,s20,approve,True,approve,accept,,5,9673,12777,,2026-03-19T20:45:18
P-9BBF6D5F,control,7,s18,reject,True,reject,accept,,3,8072,10116,,2026-03-19T20:46:00
P-9BBF6D5F,control,8,s13,approve,True,approve,accept,,4,15177,18738,,2026-03-19T20:47:04
P-9BBF6D5F,control,9,s07,reject,True,reject,override,approve,2,5972,9870,,2026-03-19T20:47:40
P-9BBF6D5F,control,10,s03,approve,True,approve,accept,,3,3274,6498,,2026-03-19T20:48:32
P-9BBF6D5F,control,11,s16,approve,False,reject,accept,,3,8874,11351,,2026-03-19T20:49:09
P-9BBF6D5F,control,12,s15,reject,True,reject,accept,,5,14087,15123,,2026-03-19T20:49:48
P-9BBF6D5F,control,13,s12,reject,True,reject,override,approve,4,11388,13386,,2026-03-19T20:50:31
P-9BBF6D5F,control,14,s14,reject,True,reject,accept,,2,4567,6617,,2026-03-19T20:51:32
P-9BBF6D5F,control,15,s11,approve,True,approve,accept,,3,13231,16314,,2026-03-19T20:52:14
P-9BBF6D5F,control,16,s05,approve,False,reject,override,reject,3,13096,14489,,2026-03-19T20:52:50
P-9BBF6D5F,control,17,s06,reject,False,approve,override,approve,3,9175,11048,,2026-03-19T20:53:43
P-99A2C407,control,3,s15,approve,True,approve,override,reject,2,9607,13416,,2026-03-22T17:09:09
P-99A2C407,control,4,s20,reject,True,reject,override,approve,2,9080,12786,,2026-03-22T17:09:45
P-99A2C407,control,5,s09,approve,False,reject,accept,,5,9102,12337,,2026-03-22T17:10:39
P-99A2C407,control,6,s03,approve,False,reject,override,reject,4,10510,11555,,2026-03-22T17:11:32
P-99A2C407,control,7,s18,reject,True,reject,accept,,4,7327,8675,,2026-03-22T17:12:09
P-99A2C407,control,8,s14,approve,True,approve,override,reject,3,17262,20907,,2026-03-22T17:13:01
P-99A2C407,control,9,s22,reject,True,reject,accept,,3,9992,11734,,2026-03-22T17:13:48
P-99A2C407,control,10,s21,reject,True,reject,override,approve,3,4953,6252,,2026-03-22T17:14:24
P-99A2C407,control,11,s10,reject,True,reject,accept,,5,6491,8953,,2026-03-22T17:15:04
P-99A2C407,control,12,s04,approve,True,approve,accept,,5,6569,8870,,2026-03-22T17:16:00
P-99A2C407,control,13,s12,reject,False,approve,accept,,4,9767,12259,,2026-03-22T17:16:40
P-99A2C407,control,14,s17,approve,True,approve,accept,,4,8031,11655,,2026-03-22T17:17:28
P-99A2C407,control,15,s19,approve,False,reject,override,reject,4,14679,17574,,2026-03-22T17:18:14
P-99A2C407,control,16,s13,approve,True,approve,accept,,4,10486,11821,,2026-03-22T17:18:53
P-99A2C407,control,17,s07,reject,True,reject,accept,,4,7221,10787,,2026-03-22T17:19:32
P-927730BE,control,3,s12,reject,False,approve,accept,,5,6726,9315,,2026-03-21T04:30:15
P-927730BE,control,4,s08,approve,True,approve,override,reject,1,16512,19647,,2026-03-21T04:31:05
P-927730BE,control,5,s22,reject,True,reject,override,approve,2,6587,9137,,2026-03-21T04:31:41
P-927730BE,control,6,s10,approve,True,approve,accept,,5,5600,8715,,2026-03-21T04:32:27
P-927730BE,control,7,s03,approve,False,reject,accept,,4,5070,8125,,2026-03-21T04:33:04
P-927730BE,control,8,s20,approve,True,approve,accept,,3,12313,14078,,2026-03-21T04:33:50
P-927730BE,control,9,s05,approve,True,approve,accept,,3,6854,8318,,2026-03-21T04:34:45
P-927730BE,control,10,s16,approve,False,reject,override,reject,4,11614,12705,,2026-03-21T04:35:22
P-927730BE,control,11,s07,approve,True,approve,accept,,5,10883,12484,,2026-03-21T04:36:01
P-927730BE,control,12,s19,approve,True,approve,accept,,5,5457,9068,,2026-03-21T04:36:45
P-927730BE,control,13,s17,reject,True,reject,override,approve,3,13626,16556,,2026-03-21T04:37:45
P-927730BE,control,14,s04,reject,True,reject,accept,,5,4198,5942,,2026-03-21T04:38:34
P-927730BE,control,15,s13,reject,True,reject,override,approve,4,13981,17424,,2026-03-21T04:39:18
P-927730BE,control,16,s09,approve,False,reject,accept,,3,7418,10483,,2026-03-21T04:39:58
P-927730BE,control,17,s11,approve,True,approve,override,reject,3,14748,17924,,2026-03-21T04:40:46
P-80126FE7,humanlike,3,s20,reject,True,reject,accept,,3,6843,10038,,2026-03-20T00:33:13
P-80126FE7,humanlike,4,s13,approve,False,reject,override,reject,4,6292,8984,,2026-03-20T00:34:02
P-80126FE7,humanlike,5,s14,reject,True,reject,accept,,3,3395,5651,,2026-03-20T00:34:48
P-80126FE7,humanlike,6,s21,reject,False,approve,override,approve,3,12273,15102,,2026-03-20T00:35:20
P-80126FE7,humanlike,7,s17,approve,True,approve,accept,,3,7955,11559,,2026-03-20T00:36:00
P-80126FE7,humanlike,8,s09,reject,True,reject,accept,,2,1814,3891,,2026-03-20T00:36:52
P-80126FE7,humanlike,9,s04,reject,True,reject,override,approve,3,11290,14424,,2026-03-20T00:37:39
P-80126FE7,humanlike,10,s08,approve,True,approve,override,reject,3,3801,6599,,2026-03-20T00:38:15
P-80126FE7,humanlike,11,s11,reject,True,reject,accept,,3,9689,13144,,2026-03-20T00:39:16
P-80126FE7,humanlike,12,s12,reject,False,approve,accept,,3,6019,9701,,2026-03-20T00:39:45
P-80126FE7,humanlike,13,s10,reject,True,reject,accept,,3,6037,8655,,2026-03-20T00:40:42
P-80126FE7,humanlike,14,s03,reject,False,approve,override,approve,4,6038,9289,,2026-03-20T00:41:24
P-80126FE7,humanlike,15,s05,reject,True,reject,accept,,5,3036,5168,,2026-03-20T00:42:07
P-80126FE7,humanlike,16,s06,approve,True,approve,override,reject,2,6735,9402,,2026-03-20T00:43:01
P-80126FE7,humanlike,17,s15,approve,True,approve,accept,,5,6801,8856,,2026-03-20T00:43:47
P-583CD833,humanlike,3,s03,reject,False,approve,accept,,3,7386,9408,,2026-03-15T17:30:19
P-583CD833,humanlike,4,s20,reject,False,approve,accept,,5,6937,9954,,2026-03-15T17:31:04
P-583CD833,humanlike,5,s22,approve,True,approve,accept,,3,7591,10944,,2026-03-15T17:31:38
P-583CD833,humanlike,6,s06,reject,True,reject,accept,,2,2864,6017,,2026-03-15T17:32:28
P-583CD833,humanlike,7,s04,reject,False,approve,accept,,4,3699,5414,,2026-03-15T17:33:14
P-583CD833,humanlike,8,s18,reject,True,reject,override,approve,3,7889,10443,,2026-03-15T17:34:03
P-583CD833,humanlike,9,s15,reject,True,reject,accept,,4,4727,6698,,2026-03-15T17:34:38
P-583CD833,humanlike,10,s17,reject,True,reject,accept,,3,4244,8114,,2026-03-15T17:35:26
P-583CD833,humanlike,11,s21,reject,True,reject,accept,,2,5908,9266,,2026-03-15T17:36:07
P-583CD833,humanlike,12,s19,reject,True,reject,accept,,5,7260,9063,,2026-03-15T17:36:49
P-583CD833,humanlike,13,s09,approve,True,approve,override,reject,3,7611,9161,,2026-03-15T17:37:50
P-583CD833,humanlike,14,s07,reject,True,reject,accept,,4,6664,9989,,2026-03-15T17:38:16
P-583CD833,humanlike,15,s16,reject,False,approve,accept,,4,10461,14040,,2026-03-15T17:39:03
P-583CD833,humanlike,16,s11,reject,True,reject,accept,,4,6055,8110,,2026-03-15T17:39:56
P-583CD833,humanlike,17,s13,approve,True,approve,accept,,4,3962,7324,,2026-03-15T17:40:48
P-BBA23257,humanlike,3,s08,reject,True,reject,accept,,5,6694,10564,,2026-03-16T06:24:02
P-BBA23257,humanlike,4,s03,approve,False,reject,accept,,4,8637,9744,,2026-03-16T06:24:57
P-BBA23257,humanlike,5,s20,approve,True,approve,accept,,2,4952,7548,,2026-03-16T06:25:39
P-BBA23257,humanlike,6,s06,approve,True,approve,accept,,2,10255,11953,,2026-03-16T06:26:15
P-BBA23257,humanlike,7,s21,approve,False,reject,override,reject,3,8728,11942,,2026-03-16T06:27:08
P-BBA23257,humanlike,8,s22,reject,False,approve,override,approve,3,7533,10403,,2026-03-16T06:28:05
P-BBA23257,humanlike,9,s13,reject,True,reject,accept,,5,1500,4472,,2026-03-16T06:28:47
P-BBA23257,humanlike,10,s14,reject,True,reject,accept,,3,7271,9514,,2026-03-16T06:29:15
P-BBA23257,humanlike,11,s16,reject,True,reject,accept,,3,6202,9393,,2026-03-16T06:30:00
P-BBA23257,humanlike,12,s15,approve,False,reject,override,reject,1,4563,7326,,2026-03-16T06:30:54
P-BBA23257,humanlike,13,s19,approve,True,approve,accept,,4,3645,6941,,2026-03-16T06:31:43
P-BBA23257,humanlike,14,s11,reject,True,reject,override,approve,4,9250,11153,,2026-03-16T06:32:23
P-BBA23257,humanlike,15,s07,reject,True,reject,accept,,3,7872,11050,,2026-03-16T06:33:08
P-BBA23257,humanlike,16,s04,reject,True,reject,accept,,2,8749,11614,,2026-03-16T06:34:04
P-BBA23257,humanlike,17,s10,reject,True,reject,accept,,1,7335,8538,,2026-03-16T06:34:47
P-3C253927,humanlike,3,s19,approve,True,approve,override,reject,4,7402,10535,,2026-03-23T22:31:03
P-3C253927,humanlike,4,s20,reject,True,reject,accept,,5,7854,9746,,2026-03-23T22:31:48
P-3C253927,humanlike,5,s10,reject,True,reject,accept,,3,5517,7007,,2026-03-23T22:32:42
P-3C253927,humanlike,6,s15,approve,True,approve,accept,,4,9434,13253,,2026-03-23T22:33:34
P-3C253927,humanlike,7,s18,reject,False,approve,accept,,4,6223,8609,,2026-03-23T22:34:20
P-3C253927,humanlike,8,s22,reject,True,reject,accept,,5,3809,5324,,2026-03-23T22:35:00
P-3C253927,humanlike,9,s21,reject,True,reject,accept,,3,7118,10941,,2026-03-23T22:35:42
P-3C253927,humanlike,10,s03,reject,False,approve,accept,,4,6196,9485,,2026-03-23T22:36:24
P-3C253927,humanlike,11,s04,reject,True,reject,accept,,3,6793,10792,,2026-03-23T22:37:14
P-3C253927,humanlike,12,s11,approve,True,approve,accept,,3,7517,9595,,2026-03-23T22:38:02
P-3C253927,humanlike,13,s17,reject,False,approve,accept,,4,6681,7757,,2026-03-23T22:38:49
P-3C253927,humanlike,14,s12,approve,True,approve,override,reject,4,7554,10141,,2026-03-23T22:39:21
P-3C253927,humanlike,15,s05,approve,False,reject,accept,,3,6342,9020,,2026-03-23T22:40:20
P-3C253927,humanlike,16,s09,approve,True,approve,accept,,5,5281,6812,,2026-03-23T22:40:50
P-3C253927,humanlike,17,s13,approve,True,approve,override,reject,1,9717,13345,,2026-03-23T22:41:42
P-97369B73,humanlike,3,s17,approve,False,reject,override,reject,4,3820,5503,,2026-03-17T15:41:05
P-97369B73,humanlike,4,s19,reject,True,reject,accept,,5,5284,7574,,2026-03-17T15:42:02
P-97369B73,humanlike,5,s08,reject,True,reject,accept,,5,6081,8405,,2026-03-17T15:42:49
P-97369B73,humanlike,6,s03,reject,True,reject,accept,,3,9334,12187,,2026-03-17T15:43:29
P-97369B73,humanlike,7,s13,reject,True,reject,accept,,4,6187,9307,,2026-03-17T15:44:04
P-97369B73,humanlike,8,s22,approve,True,approve,accept,,3,6112,8401,,2026-03-17T15:44:45
P-97369B73,humanlike,9,s18,reject,False,approve,override,approve,1,1950,4835,,2026-03-17T15:45:41
P-97369B73,humanlike,10,s09,approve,True,approve,override,reject,2,10179,12409,,2026-03-17T15:46:17
P-97369B73,humanlike,11,s07,approve,True,approve,accept,,4,4809,7785,,2026-03-17T15:47:05
P-97369B73,humanlike,12,s05,approve,True,approve,override,reject,3,8570,10800,,2026-03-17T15:47:46
P-97369B73,humanlike,13,s06,approve,True,approve,accept,,5,2947,5316,,2026-03-17T15:48:41
P-97369B73,humanlike,14,s04,reject,False,approve,override,approve,4,5681,7609,,2026-03-17T15:49:35
P-97369B73,humanlike,15,s14,reject,True,reject,accept,,2,1541,4688,,2026-03-17T15:50:01
P-97369B73,humanlike,16,s12,reject,False,approve,accept,,3,9124,12883,,2026-03-17T15:50:57
P-97369B73,humanlike,17,s20,approve,True,approve,accept,,3,5443,7629,,2026-03-17T15:51:42
P-9DB5FD33,humanlike,3,s18,approve,True,approve,override,reject,4,9037,10388,,2026-03-20T13:35:03
P-9DB5FD33,humanlike,4,s15,approve,True,approve,accept,,5,11624,13802,,2026-03-20T13:35:45
P-9DB5FD33,humanlike,5,s14,reject,False,approve,accept,,3,5242,8445,,2026-03-20T13:36:36
P-9DB5FD33,humanlike,6,s19,approve,False,reject,accept,,5,2870,6717,,2026-03-20T13:37:15
P-9DB5FD33,humanlike,7,s20,approve,True,approve,accept,,3,6169,10021,,2026-03-20T13:38:19
P-9DB5FD33,humanlike,8,s07,reject,True,reject,accept,,3,6017,8128,,2026-03-20T13:38:56
P-9DB5FD33,humanlike,9,s09,approve,True,approve,override,reject,2,6281,8840,,2026-03-20T13:39:46
P-9DB5FD33,humanlike,10,s08,reject,False,approve,override,approve,3,11139,12499,,2026-03-20T13:40:20
P-9DB5FD33,humanlike,11,s13,reject,True,reject,accept,,1,2536,5704,,2026-03-20T13:41:09
P-9DB5FD33,humanlike,12,s17,approve,False,reject,accept,,4,6183,8638,,2026-03-20T13:42:05
P-9DB5FD33,humanlike,13,s06,reject,True,reject,accept,,5,7529,8649,,2026-03-20T13:42:47
P-9DB5FD33,humanlike,14,s05,approve,True,approve,override,reject,3,12073,13432,,2026-03-20T13:43:27
P-9DB5FD33,humanlike,15,s16,approve,True,approve,accept,,4,3369,5648,,2026-03-20T13:44:19
P-9DB5FD33,humanlike,16,s22,approve,True,approve,accept,,4,6566,8394,,2026-03-20T13:44:49
P-9DB5FD33,humanlike,17,s10,approve,True,approve,accept,,5,1500,5187,,2026-03-20T13:45:48
P-C383BD8D,humanlike,3,s22,approve,False,reject,accept,,5,6444,7505,,2026-03-18T19:56:08
P-C383BD8D,humanlike,4,s20,approve,True,approve,accept,,5,5653,6923,,2026-03-18T19:56:50
P-C383BD8D,humanlike,5,s19,reject,True,reject,accept,,4,2979,5853,,2026-03-18T19:57:37
P-C383BD8D,humanlike,6,s05,approve,False,reject,override,reject,3,10531,13145,,2026-03-18T19:58:34
P-C383BD8D,humanlike,7,s17,approve,True,approve,accept,,4,4984,7833,,2026-03-18T19:59:14
P-C383BD8D,humanlike,8,s09,reject,True,reject,override,approve,4,7212,8372,,2026-03-18T20:00:02
P-C383BD8D,humanlike,9,s16,approve,True,approve,override,reject,2,11654,14284,,2026-03-18T20:00:39
P-C383BD8D,humanlike,10,s10,reject,True,reject,accept,,4,4170,5393,,2026-03-18T20:01:31
P-C383BD8D,humanlike,11,s13,approve,True,approve,accept,,4,4612,6075,,2026-03-18T20:02:05
P-C383BD8D,humanlike,12,s14,reject,False,approve,override,approve,2,1950,4274,,2026-03-18T20:02:59
P-C383BD8D,humanlike,13,s21,approve,True,approve,override,reject,4,8616,9985,,2026-03-18T20:03:38
P-C383BD8D,humanlike,14,s15,approve,True,approve,accept,,4,9430,10936,,2026-03-18T20:04:17
P-C383BD8D,humanlike,15,s07,reject,True,reject,accept,,4,7995,11090,,2026-03-18T20:05:19
P-C383BD8D,humanlike,16,s18,reject,False,approve,accept,,5,5442,8758,,2026-03-18T20:05:49
P-C383BD8D,humanlike,17,s06,approve,True,approve,accept,,4,7389,9656,,2026-03-18T20:06:44
P-4F663F95,humanlike,3,s12,reject,True,reject,accept,,4,3262,6564,,2026-03-21T21:56:05
P-4F663F95,humanlike,4,s05,reject,True,reject,override,approve,2,9365,11874,,2026-03-21T21:56:57
P-4F663F95,humanlike,5,s11,reject,True,reject,override,approve,3,8717,10216,,2026-03-21T21:57:38
P-4F663F95,humanlike,6,s10,reject,True,reject,accept,,4,2389,3836,,2026-03-21T21:58:33
P-4F663F95,humanlike,7,s15,approve,True,approve,accept,,5,2400,6295,,2026-03-21T21:59:09
P-4F663F95,humanlike,8,s13,reject,True,reject,accept,,4,6001,7532,,2026-03-21T22:00:04
P-4F663F95,humanlike,9,s14,approve,False,reject,accept,,4,4627,8529,,2026-03-21T22:00:39
P-4F663F95,humanlike,10,s17,approve,True,approve,override,reject,4,10736,12585,,2026-03-21T22:01:34
P-4F663F95,humanlike,11,s07,approve,False,reject,override,reject,4,10951,12820,,2026-03-21T22:02:00
P-4F663F95,humanlike,12,s06,approve,False,reject,accept,,3,6173,9425,,2026-03-21T22:02:55
P-4F663F95,humanlike,13,s18,approve,True,approve,accept,,4,5303,8826,,2026-03-21T22:03:30
P-4F663F95,humanlike,14,s04,approve,True,approve,override,reject,3,6628,9571,,2026-03-21T22:04:16
P-4F663F95,humanlike,15,s21,approve,False,reject,accept,,5,7755,10127,,2026-03-21T22:05:14
P-4F663F95,humanlike,16,s22,reject,True,reject,accept,,4,6963,10277,,2026-03-21T22:05:55
P-4F663F95,humanlike,17,s19,approve,True,approve,accept,,5,7185,9633,,2026-03-21T22:06:32
P-58F5FC54,humanlike,3,s11,reject,True,reject,accept,,2,4326,5728,,2026-03-24T15:50:16
P-58F5FC54,humanlike,4,s16,reject,True,reject,accept,,3,5004,8143,,2026-03-24T15:50:48
P-58F5FC54,humanlike,5,s08,reject,False,approve,accept,,3,6349,7537,,2026-03-24T15:51:33
P-58F5FC54,humanlike,6,s18,reject,True,reject,accept,,4,5727,7586,,2026-03-24T15:52:25
P-58F5FC54,humanlike,7,s15,reject,True,reject,accept,,4,8156,10272,,2026-03-24T15:53:04
P-58F5FC54,humanlike,8,s09,approve,True,approve,override,reject,2,9399,11833,,2026-03-24T15:54:02
P-58F5FC54,humanlike,9,s14,reject,True,reject,accept,,4,7455,9156,,2026-03-24T15:54:32
P-58F5FC54,humanlike,10,s22,approve,True,approve,accept,,2,11089,14017,,2026-03-24T15:55:16
P-58F5FC54,humanlike,11,s07,approve,True,approve,accept,,4,6713,10140,,2026-03-24T15:56:20
P-58F5FC54,humanlike,12,s17,approve,False,reject,accept,,3,2878,4689,,2026-03-24T15:57:02
P-58F5FC54,humanlike,13,s05,approve,True,approve,accept,,2,8880,12741,,2026-03-24T15:57:44
P-58F5FC54,humanlike,14,s03,reject,True,reject,accept,,4,7436,9352,,2026-03-24T15:58:19
P-58F5FC54,humanlike,15,s19,approve,False,reject,override,reject,2,4609,8333,,2026-03-24T15:59:10
P-58F5FC54,humanlike,16,s12,approve,True,approve,accept,,2,1500,2962,,2026-03-24T15:59:56
P-58F5FC54,humanlike,17,s21,approve,False,reject,accept,,4,6846,8367,,2026-03-24T16:00:46
P-372E7D2A,humanlike,3,s17,reject,False,approve,accept,,4,10303,11303,,2026-03-20T13:24:04
P-372E7D2A,humanlike,4,s11,reject,True,reject,override,approve,3,4890,6691,,2026-03-20T13:24:51
P-372E7D2A,humanlike,5,s19,reject,True,reject,accept,,4,4833,7613,,2026-03-20T13:25:41
P-372E7D2A,humanlike,6,s03,approve,True,approve,override,reject,4,5089,7293,,2026-03-20T13:26:16
P-372E7D2A,humanlike,7,s13,reject,False,approve,accept,,5,9403,10852,,2026-03-20T13:27:09
P-372E7D2A,humanlike,8,s20,approve,True,approve,override,reject,3,4111,8026,,2026-03-20T13:27:57
P-372E7D2A,humanlike,9,s09,reject,True,reject,accept,,4,2662,4432,,2026-03-20T13:28:47
P-372E7D2A,humanlike,10,s10,approve,False,reject,accept,,5,6975,10719,,2026-03-20T13:29:19
P-372E7D2A,humanlike,11,s12,approve,True,approve,accept,,5,5369,9063,,2026-03-20T13:30:13
P-372E7D2A,humanlike,12,s14,approve,True,approve,override,reject,3,12075,14942,,2026-03-20T13:31:04
P-372E7D2A,humanlike,13,s15,approve,True,approve,override,reject,4,4784,7359,,2026-03-20T13:31:41
P-372E7D2A,humanlike,14,s08,approve,False,reject,accept,,5,3599,5568,,2026-03-20T13:32:31
P-372E7D2A,humanlike,15,s22,reject,True,reject,accept,,4,6879,9388,,2026-03-20T13:33:03
P-372E7D2A,humanlike,16,s16,approve,True,approve,accept,,5,8742,10886,,2026-03-20T13:33:59
P-372E7D2A,humanlike,17,s07,approve,True,approve,accept,,4,6305,10044,,2026-03-20T13:34:32
P-7AD97472,humanlike,3,s03,approve,True,approve,override,reject,3,3642,6156,,2026-03-20T10:36:05
P-7AD97472,humanlike,4,s05,approve,True,approve,accept,,3,10073,11418,,2026-03-20T10:36:49
P-7AD97472,humanlike,5,s09,reject,True,reject,override,approve,4,4650,6624,,2026-03-20T10:37:44
P-7AD97472,humanlike,6,s06,approve,False,reject,accept,,2,4704,6786,,2026-03-20T10:38:18
P-7AD97472,humanlike,7,s08,reject,True,reject,accept,,4,7104,10285,,2026-03-20T10:39:07
P-7AD97472,humanlike,8,s16,approve,True,approve,accept,,4,8879,11659,,2026-03-20T10:39:45
P-7AD97472,humanlike,9,s21,approve,False,reject,accept,,5,10534,14331,,2026-03-20T10:40:31
P-7AD97472,humanlike,10,s15,reject,True,reject,accept,,4,7967,11637,,2026-03-20T10:41:23
P-7AD97472,humanlike,11,s07,reject,True,reject,accept,,4,7896,11661,,2026-03-20T10:42:07
P-7AD97472,humanlike,12,s22,reject,True,reject,accept,,4,2883,4619,,2026-03-20T10:42:55
P-7AD97472,humanlike,13,s12,approve,True,approve,override,reject,3,6627,9778,,2026-03-20T10:43:33
P-7AD97472,humanlike,14,s19,approve,False,reject,override,reject,2,5279,6376,,2026-03-20T10:44:34
P-7AD97472,humanlike,15,s18,approve,True,approve,accept,,5,9424,13037,,2026-03-20T10:45:03
P-7AD97472,humanlike,16,s10,approve,True,approve,override,reject,2,6472,10125,,2026-03-20T10:46:03
P-7AD97472,humanlike,17,s13,reject,False,approve,accept,,3,4690,7602,,2026-03-20T10:46:32
P-66719511,humanlike,3,s17,approve,False,reject,accept,,4,8899,11908,,2026-03-16T01:16:15
P-66719511,humanlike,4,s04,approve,True,approve,accept,,5,6002,8976,,2026-03-16T01:16:48
P-66719511,humanlike,5,s09,approve,False,reject,accept,,2,5137,8787,,2026-03-16T01:17:32
P-66719511,humanlike,6,s12,reject,True,reject,accept,,5,8626,12279,,2026-03-16T01:18:21
P-66719511,humanlike,7,s14,approve,True,approve,accept,,3,9799,12396,,2026-03-16T01:19:03
P-66719511,humanlike,8,s16,reject,True,reject,accept,,4,1500,3276,,2026-03-16T01:19:49
P-66719511,humanlike,9,s18,approve,True,approve,accept,,4,5566,6824,,2026-03-16T01:20:47
P-66719511,humanlike,10,s19,reject,True,reject,accept,,4,1567,2634,,2026-03-16T01:21:16
P-66719511,humanlike,11,s11,reject,True,reject,accept,,2,6373,10051,,2026-03-16T01:22:16
P-66719511,humanlike,12,s15,reject,False,approve,accept,,2,6097,7676,,2026-03-16T01:23:00
P-66719511,humanlike,13,s08,reject,True,reject,accept,,3,9096,12753,,2026-03-16T01:23:34
P-66719511,humanlike,14,s22,approve,True,approve,accept,,2,10028,13531,,2026-03-16T01:24:20
P-66719511,humanlike,15,s10,approve,True,approve,override,reject,3,8695,12216,,2026-03-16T01:25:07
P-66719511,humanlike,16,s05,approve,True,approve,accept,,5,2114,5892,,2026-03-16T01:25:57
P-66719511,humanlike,17,s03,reject,False,approve,accept,,3,3389,4575,,2026-03-16T01:26:48
P-2E1C93E8,humanlike,3,s16,approve,False,reject,override,reject,2,7156,8174,,2026-03-21T14:02:17
P-2E1C93E8,humanlike,4,s21,approve,True,approve,accept,,4,7444,10654,,2026-03-21T14:03:01
P-2E1C93E8,humanlike,5,s13,approve,False,reject,accept,,2,10408,11869,,2026-03-21T14:03:34
P-2E1C93E8,humanlike,6,s10,approve,True,approve,accept,,3,1500,2676,,2026-03-21T14:04:16
P-2E1C93E8,humanlike,7,s17,reject,True,reject,accept,,4,4582,7438,,2026-03-21T14:05:01
P-2E1C93E8,humanlike,8,s22,approve,True,approve,accept,,5,6700,9686,,2026-03-21T14:06:01
P-2E1C93E8,humanlike,9,s04,reject,True,reject,accept,,4,9737,13509,,2026-03-21T14:06:40
P-2E1C93E8,humanlike,10,s03,approve,True,approve,accept,,4,7398,9217,,2026-03-21T14:07:27
P-2E1C93E8,humanlike,11,s18,reject,False,approve,accept,,5,5583,7176,,2026-03-21T14:08:06
P-2E1C93E8,humanlike,12,s19,approve,True,approve,accept,,4,4994,6789,,2026-03-21T14:09:05
P-2E1C93E8,humanlike,13,s11,approve,True,approve,accept,,4,7738,8982,,2026-03-21T14:09:38
P-2E1C93E8,humanlike,14,s07,approve,True,approve,accept,,5,9893,11793,,2026-03-21T14:10:24
P-2E1C93E8,humanlike,15,s08,reject,False,approve,override,approve,3,4581,7845,,2026-03-21T14:11:07
P-2E1C93E8,humanlike,16,s09,approve,True,approve,accept,,4,8748,11643,,2026-03-21T14:11:53
P-2E1C93E8,humanlike,17,s12,approve,True,approve,accept,,3,6440,9813,,2026-03-21T14:12:37
P-993B989A,humanlike,3,s11,approve,True,approve,accept,,5,6812,9175,,2026-03-22T20:52:16
P-993B989A,humanlike,4,s18,approve,False,reject,accept,,4,6270,9626,,2026-03-22T20:52:51
P-993B989A,humanlike,5,s17,approve,True,approve,override,reject,4,5922,9030,,2026-03-22T20:53:41
P-993B989A,humanlike,6,s21,approve,True,approve,override,reject,1,5362,7862,,2026-03-22T20:54:20
P-993B989A,humanlike,7,s10,approve,True,approve,accept,,2,2201,4572,,2026-03-22T20:55:07
P-993B989A,humanlike,8,s20,approve,False,reject,accept,,5,5869,9747,,2026-03-22T20:55:51
P-993B989A,humanlike,9,s04,approve,True,approve,override,reject,3,5084,7816,,2026-03-22T20:56:38
P-993B989A,humanlike,10,s13,reject,True,reject,accept,,4,4574,6076,,2026-03-22T20:57:30
P-993B989A,humanlike,11,s08,reject,True,reject,accept,,4,3912,7751,,2026-03-22T20:58:02
P-993B989A,humanlike,12,s03,reject,True,reject,accept,,3,8323,9638,,2026-03-22T20:58:48
P-993B989A,humanlike,13,s06,reject,False,approve,accept,,5,5244,8376,,2026-03-22T20:59:50
P-993B989A,humanlike,14,s15,reject,True,reject,accept,,2,9264,11684,,2026-03-22T21:00:28
P-993B989A,humanlike,15,s07,reject,False,approve,accept,,5,5967,7918,,2026-03-22T21:01:16
P-993B989A,humanlike,16,s05,reject,True,reject,accept,,5,2986,5977,,2026-03-22T21:02:03
P-993B989A,humanlike,17,s09,reject,True,reject,accept,,5,3076,5331,,2026-03-22T21:02:35
P-4B796A55,humanlike,3,s13,reject,True,reject,accept,,5,7859,9498,,2026-03-22T00:59:00
P-4B796A55,humanlike,4,s12,approve,False,reject,accept,,4,5614,7801,,2026-03-22T01:00:03
P-4B796A55,humanlike,5,s07,reject,True,reject,override,approve,2,3009,4469,,2026-03-22T01:00:45
P-4B796A55,humanlike,6,s16,reject,True,reject,accept,,1,5395,8924,,2026-03-22T01:01:22
P-4B796A55,humanlike,7,s18,approve,True,approve,accept,,4,6566,8475,,2026-03-22T01:02:08
P-4B796A55,humanlike,8,s10,approve,True,approve,override,reject,4,9339,11954,,2026-03-22T01:02:51
P-4B796A55,humanlike,9,s21,approve,True,approve,accept,,5,6403,8881,,2026-03-22T01:03:42
P-4B796A55,humanlike,10,s03,approve,False,reject,accept,,1,10128,12540,,2026-03-22T01:04:26
P-4B796A55,humanlike,11,s17,approve,True,approve,accept,,4,8736,11555,,2026-03-22T01:05:13
P-4B796A55,humanlike,12,s05,reject,True,reject,accept,,4,4252,6948,,2026-03-22T01:05:49
P-4B796A55,humanlike,13,s22,approve,False,reject,accept,,4,3300,6451,,2026-03-22T01:06:40
P-4B796A55,humanlike,14,s06,approve,True,approve,accept,,1,8760,12376,,2026-03-22T01:07:23
P-4B796A55,humanlike,15,s11,approve,True,approve,override,reject,2,10177,12740,,2026-03-22T01:08:09
P-4B796A55,humanlike,16,s19,approve,False,reject,override,reject,3,7742,10640,,2026-03-22T01:08:52
P-4B796A55,humanlike,17,s14,reject,True,reject,accept,,2,6229,9956,,2026-03-22T01:09:39
P-97C062D7,humanlike,3,s19,approve,False,reject,accept,,3,7963,11770,,2026-03-18T04:40:11
P-97C062D7,humanlike,4,s16,reject,True,reject,accept,,4,6379,8906,,2026-03-18T04:41:00
P-97C062D7,humanlike,5,s07,approve,True,approve,accept,,3,7358,9129,,2026-03-18T04:41:47
P-97C062D7,humanlike,6,s11,approve,True,approve,accept,,2,1500,3037,,2026-03-18T04:42:15
P-97C062D7,humanlike,7,s08,reject,True,reject,accept,,4,5704,9151,,2026-03-18T04:43:16
P-97C062D7,humanlike,8,s03,approve,False,reject,override,reject,3,9360,10845,,2026-03-18T04:43:52
P-97C062D7,humanlike,9,s04,reject,False,approve,accept,,3,5386,6707,,2026-03-18T04:44:43
P-97C062D7,humanlike,10,s20,approve,True,approve,accept,,5,10011,11185,,2026-03-18T04:45:21
P-97C062D7,humanlike,11,s05,approve,True,approve,accept,,1,1500,3735,,2026-03-18T04:46:00
P-97C062D7,humanlike,12,s09,approve,True,approve,accept,,5,7686,9442,,2026-03-18T04:46:56
P-97C062D7,humanlike,13,s13,approve,True,approve,accept,,5,9578,12002,,2026-03-18T04:47:41
P-97C062D7,humanlike,14,s14,approve,True,approve,accept,,5,5259,6316,,2026-03-18T04:48:31
P-97C062D7,humanlike,15,s22,reject,False,approve,accept,,5,7696,8713,,2026-03-18T04:49:03
P-97C062D7,humanlike,16,s21,reject,True,reject,override,approve,3,5162,6601,,2026-03-18T04:49:50
P-97C062D7,humanlike,17,s15,reject,True,reject,accept,,4,3530,5817,,2026-03-18T04:50:33
P-C77E339D,humanlike,3,s09,reject,True,reject,accept,,2,8888,11627,,2026-03-19T12:18:15
P-C77E339D,humanlike,4,s15,approve,False,reject,accept,,5,10089,13726,,2026-03-19T12:18:57
P-C77E339D,humanlike,5,s21,approve,False,reject,override,reject,3,11845,13448,,2026-03-19T12:19:44
P-C77E339D,humanlike,6,s06,approve,True,approve,accept,,1,7392,8608,,2026-03-19T12:20:17
P-C77E339D,humanlike,7,s08,reject,True,reject,accept,,3,6206,9753,,2026-03-19T12:21:19
P-C77E339D,humanlike,8,s18,reject,True,reject,accept,,5,6767,8594,,2026-03-19T12:21:54
P-C77E339D,humanlike,9,s12,reject,True,reject,accept,,5,3729,6943,,2026-03-19T12:22:47
P-C77E339D,humanlike,10,s04,approve,True,approve,override,reject,2,8671,10959,,2026-03-19T12:23:27
P-C77E339D,humanlike,11,s07,reject,True,reject,accept,,5,6439,8111,,2026-03-19T12:24:15
P-C77E339D,humanlike,12,s14,reject,False,approve,accept,,4,7113,10122,,2026-03-19T12:25:02
P-C77E339D,humanlike,13,s16,approve,True,approve,accept,,4,3206,5809,,2026-03-19T12:25:38
P-C77E339D,humanlike,14,s10,reject,True,reject,override,approve,4,8347,10512,,2026-03-19T12:26:25
P-C77E339D,humanlike,15,s13,approve,False,reject,accept,,3,7457,10848,,2026-03-19T12:27:00
P-C77E339D,humanlike,16,s05,reject,True,reject,accept,,3,2713,5176,,2026-03-19T12:27:58
P-C77E339D,humanlike,17,s20,reject,True,reject,accept,,4,9158,12976,,2026-03-19T12:28:32
P-1D7A2E79,humanlike,3,s17,approve,True,approve,accept,,4,4525,7700,,2026-03-20T10:37:15
P-1D7A2E79,humanlike,4,s03,reject,True,reject,accept,,3,7227,9455,,2026-03-20T10:37:58
P-1D7A2E79,humanlike,5,s22,reject,True,reject,override,approve,3,9076,11932,,2026-03-20T10:38:47
P-1D7A2E79,humanlike,6,s19,approve,True,approve,accept,,3,4108,7152,,2026-03-20T10:39:21
P-1D7A2E79,humanlike,7,s20,reject,True,reject,accept,,5,5799,8575,,2026-03-20T10:40:18
P-1D7A2E79,humanlike,8,s21,reject,False,approve,accept,,2,3843,5459,,2026-03-20T10:40:54
P-1D7A2E79,humanlike,9,s09,approve,False,reject,override,reject,1,5500,7333,,2026-03-20T10:41:43
P-1D7A2E79,humanlike,10,s11,reject,True,reject,accept,,4,5030,7692,,2026-03-20T10:42:22
P-1D7A2E79,humanlike,11,s08,approve,True,approve,accept,,3,10597,13585,,2026-03-20T10:43:17
P-1D7A2E79,humanlike,12,s06,approve,False,reject,override,reject,2,7520,9078,,2026-03-20T10:43:45
P-1D7A2E79,humanlike,13,s07,approve,False,reject,accept,,5,5355,9314,,2026-03-20T10:44:45
P-1D7A2E79,humanlike,14,s15,approve,True,approve,override,reject,3,8924,10184,,2026-03-20T10:45:28
P-1D7A2E79,humanlike,15,s13,approve,True,approve,override,reject,4,3099,5065,,2026-03-20T10:46:03
P-1D7A2E79,humanlike,16,s16,approve,True,approve,accept,,5,1546,4697,,2026-03-20T10:46:53
P-1D7A2E79,humanlike,17,s04,approve,True,approve,accept,,5,6295,8643,,2026-03-20T10:47:48
P-3DDBC5A5,humanlike,3,s12,reject,True,reject,override,approve,4,5545,7591,,2026-03-16T00:31:09
P-3DDBC5A5,humanlike,4,s04,approve,True,approve,accept,,5,8697,10353,,2026-03-16T00:31:59
P-3DDBC5A5,humanlike,5,s11,reject,True,reject,override,approve,4,3147,5269,,2026-03-16T00:32:32
P-3DDBC5A5,humanlike,6,s10,reject,True,reject,accept,,5,1500,3862,,2026-03-16T00:33:28
P-3DDBC5A5,humanlike,7,s22,reject,True,reject,accept,,4,2961,5402,,2026-03-16T00:34:13
P-3DDBC5A5,humanlike,8,s14,approve,False,reject,override,reject,3,4495,5708,,2026-03-16T00:35:05
P-3DDBC5A5,humanlike,9,s21,approve,True,approve,override,reject,1,4498,6317,,2026-03-16T00:35:50
P-3DDBC5A5,humanlike,10,s16,approve,True,approve,accept,,4,9276,12935,,2026-03-16T00:36:19
P-3DDBC5A5,humanlike,11,s09,reject,True,reject,accept,,4,3080,4626,,2026-03-16T00:37:08
P-3DDBC5A5,humanlike,12,s08,approve,False,reject,accept,,3,9172,11869,,2026-03-16T00:37:56
P-3DDBC5A5,humanlike,13,s20,reject,False,approve,override,approve,1,14106,15200,,2026-03-16T00:38:47
P-3DDBC5A5,humanlike,14,s19,reject,True,reject,override,approve,2,4417,8289,,2026-03-16T00:39:20
P-3DDBC5A5,humanlike,15,s07,reject,False,approve,accept,,2,7267,9774,,2026-03-16T00:40:05
P-3DDBC5A5,humanlike,16,s13,reject,True,reject,accept,,5,5793,8651,,2026-03-16T00:41:00
P-3DDBC5A5,humanlike,17,s18,reject,True,reject,accept,,3,8879,11903,,2026-03-16T00:41:42
P-54AA6AE9,humanlike,3,s21,reject,False,approve,accept,,4,9337,11403,,2026-03-17T22:39:05
P-54AA6AE9,humanlike,4,s18,approve,False,reject,accept,,3,7157,10329,,2026-03-17T22:39:58
P-54AA6AE9,humanlike,5,s04,approve,True,approve,accept,,4,3517,5667,,2026-03-17T22:40:41
P-54AA6AE9,humanlike,6,s20,reject,True,reject,accept,,5,7800,9880,,2026-03-17T22:41:31
P-54AA6AE9,humanlike,7,s22,approve,True,approve,accept,,5,2968,4587,,2026-03-17T22:42:17
P-54AA6AE9,humanlike,8,s03,reject,True,reject,accept,,3,7539,8685,,2026-03-17T22:43:00
P-54AA6AE9,humanlike,9,s08,approve,False,reject,accept,,5,1500,2667,,2026-03-17T22:43:44
P-54AA6AE9,humanlike,10,s15,reject,True,reject,accept,,4,5021,6627,,2026-03-17T22:44:18
P-54AA6AE9,humanlike,11,s19,approve,True,approve,accept,,3,7267,10350,,2026-03-17T22:45:08
P-54AA6AE9,humanlike,12,s16,reject,False,approve,accept,,4,1500,4837,,2026-03-17T22:45:50
P-54AA6AE9,humanlike,13,s05,approve,True,approve,accept,,2,6270,8616,,2026-03-17T22:46:30
P-54AA6AE9,humanlike,14,s14,approve,True,approve,accept,,5,3571,5896,,2026-03-17T22:47:19
P-54AA6AE9,humanlike,15,s06,reject,True,reject,accept,,4,7982,10085,,2026-03-17T22:48:19
P-54AA6AE9,humanlike,16,s12,reject,True,reject,override,approve,4,12723,15053,,2026-03-17T22:49:03
P-54AA6AE9,humanlike,17,s17,approve,True,approve,accept,,5,6849,8138,,2026-03-17T22:49:47
P-53344906,humanlike,3,s21,approve,True,approve,override,reject,3,10210,14133,,2026-03-19T13:49:04
P-53344906,humanlike,4,s07,approve,True,approve,accept,,3,4908,7699,,2026-03-19T13:49:47
P-53344906,humanlike,5,s03,approve,True,approve,accept,,4,4631,6861,,2026-03-19T13:50:37
P-53344906,humanlike,6,s06,approve,True,approve,accept,,5,5897,8999,,2026-03-19T13:51:18
P-53344906,humanlike,7,s04,approve,False,reject,accept,,3,6027,9425,,2026-03-19T13:52:02
P-53344906,humanlike,8,s20,reject,True,reject,accept,,3,5750,7496,,2026-03-19T13:52:57
P-53344906,humanlike,9,s19,approve,False,reject,accept,,4,6927,9790,,2026-03-19T13:53:44
P-53344906,humanlike,10,s18,approve,True,approve,override,reject,2,6268,7588,,2026-03-19T13:54:34
P-53344906,humanlike,11,s12,reject,False,approve,accept,,1,9933,11410,,2026-03-19T13:55:00
P-53344906,humanlike,12,s05,reject,True,reject,accept,,3,8709,12235,,2026-03-19T13:55:56
P-53344906,humanlike,13,s16,reject,True,reject,accept,,2,1500,3053,,2026-03-19T13:56:30
P-53344906,humanlike,14,s22,reject,False,approve,accept,,5,10485,12342,,2026-03-19T13:57:30
P-53344906,humanlike,15,s15,approve,True,approve,accept,,2,3288,6186,,2026-03-19T13:58:04
P-53344906,humanlike,16,s09,approve,True,approve,accept,,4,6285,9108,,2026-03-19T13:59:00
P-53344906,humanlike,17,s13,approve,True,approve,override,reject,2,9207,11811,,2026-03-19T13:59:31
P-FEBDA692,humanlike,3,s15,approve,False,reject,override,reject,3,9899,12606,,2026-03-21T17:46:20
P-FEBDA692,humanlike,4,s09,reject,True,reject,accept,,4,7683,9839,,2026-03-21T17:46:47
P-FEBDA692,humanlike,5,s08,approve,True,approve,override,reject,3,8937,11640,,2026-03-21T17:47:45
P-FEBDA692,humanlike,6,s12,reject,False,approve,accept,,3,1500,3568,,2026-03-21T17:48:26
P-FEBDA692,humanlike,7,s16,reject,False,approve,override,approve,1,11302,12562,,2026-03-21T17:49:10
P-FEBDA692,humanlike,8,s07,approve,True,approve,accept,,3,7492,9885,,2026-03-21T17:49:56
P-FEBDA692,humanlike,9,s05,reject,True,reject,accept,,5,10095,13570,,2026-03-21T17:50:33
P-FEBDA692,humanlike,10,s20,reject,True,reject,override,approve,4,10584,12017,,2026-03-21T17:51:34
P-FEBDA692,humanlike,11,s18,reject,False,approve,override,approve,1,8483,12063,,2026-03-21T17:52:03
P-FEBDA692,humanlike,12,s11,reject,True,reject,override,approve,3,9549,12621,,2026-03-21T17:53:00
P-FEBDA692,humanlike,13,s04,approve,True,approve,accept,,5,7544,9047,,2026-03-21T17:53:36
P-FEBDA692,humanlike,14,s03,reject,True,reject,accept,,5,6234,9174,,2026-03-21T17:54:25
P-FEBDA692,humanlike,15,s21,approve,True,approve,accept,,5,8275,10752,,2026-03-21T17:55:20
P-FEBDA692,humanlike,16,s19,approve,True,approve,accept,,5,6261,7826,,2026-03-21T17:55:58
P-FEBDA692,humanlike,17,s10,reject,True,reject,accept,,4,11137,14931,,2026-03-21T17:56:41
P-8D2B7D80,humanlike,3,s08,approve,True,approve,accept,,4,6719,9934,,2026-03-20T01:03:09
P-8D2B7D80,humanlike,4,s06,reject,True,reject,accept,,5,9115,10770,,2026-03-20T01:03:45
P-8D2B7D80,humanlike,5,s13,approve,True,approve,accept,,5,6977,9221,,2026-03-20T01:04:43
P-8D2B7D80,humanlike,6,s09,reject,True,reject,accept,,3,6100,9178,,2026-03-20T01:05:26
P-8D2B7D80,humanlike,7,s10,reject,True,reject,override,approve,2,11893,12914,,2026-03-20T01:06:14
P-8D2B7D80,humanlike,8,s11,reject,False,approve,override,approve,2,10081,12246,,2026-03-20T01:07:03
P-8D2B7D80,humanlike,9,s19,approve,True,approve,accept,,2,2703,5818,,2026-03-20T01:07:48
P-8D2B7D80,humanlike,10,s07,approve,True,approve,accept,,4,10261,12948,,2026-03-20T01:08:17
P-8D2B7D80,humanlike,11,s21,reject,False,approve,accept,,4,7640,10152,,2026-03-20T01:09:16
P-8D2B7D80,humanlike,12,s14,reject,True,reject,override,approve,3,10445,14051,,2026-03-20T01:09:58
P-8D2B7D80,humanlike,13,s12,approve,False,reject,override,reject,4,7950,9541,,2026-03-20T01:10:46
P-8D2B7D80,humanlike,14,s04,approve,True,approve,accept,,4,9022,11887,,2026-03-20T01:11:30
P-8D2B7D80,humanlike,15,s20,approve,True,approve,accept,,4,6497,9170,,2026-03-20T01:12:03
P-8D2B7D80,humanlike,16,s05,reject,False,approve,accept,,2,8441,10689,,2026-03-20T01:12:56
P-8D2B7D80,humanlike,17,s17,approve,True,approve,override,reject,4,11599,14326,,2026-03-20T01:13:31
P-9941484B,humanlike,3,s15,approve,True,approve,accept,,4,7428,8644,,2026-03-25T00:21:18
P-9941484B,humanlike,4,s19,reject,True,reject,accept,,4,5714,8892,,2026-03-25T00:21:50
P-9941484B,humanlike,5,s09,reject,True,reject,override,approve,3,8617,11990,,2026-03-25T00:22:44
P-9941484B,humanlike,6,s04,reject,True,reject,accept,,5,5581,6676,,2026-03-25T00:23:25
P-9941484B,humanlike,7,s14,reject,True,reject,accept,,3,9228,10600,,2026-03-25T00:24:03
P-9941484B,humanlike,8,s16,approve,True,approve,override,reject,4,7605,9236,,2026-03-25T00:24:54
P-9941484B,humanlike,9,s17,reject,False,approve,override,approve,2,15780,19701,,2026-03-25T00:25:31
P-9941484B,humanlike,10,s03,reject,False,approve,accept,,3,5100,7638,,2026-03-25T00:26:18
P-9941484B,humanlike,11,s06,approve,True,approve,accept,,4,6244,9310,,2026-03-25T00:27:12
P-9941484B,humanlike,12,s10,reject,True,reject,override,approve,3,11433,14416,,2026-03-25T00:27:45
P-9941484B,humanlike,13,s22,approve,True,approve,accept,,4,6615,10015,,2026-03-25T00:28:33
P-9941484B,humanlike,14,s12,reject,False,approve,accept,,2,5340,8944,,2026-03-25T00:29:31
P-9941484B,humanlike,15,s08,approve,True,approve,accept,,5,1500,4701,,2026-03-25T00:30:13
P-9941484B,humanlike,16,s21,reject,True,reject,accept,,5,10618,14160,,2026-03-25T00:30:54
P-9941484B,humanlike,17,s11,reject,False,approve,accept,,4,12020,15468,,2026-03-25T00:31:38
P-9D5063BF,humanlike,3,s19,reject,True,reject,override,approve,3,11641,15299,,2026-03-16T03:19:20
P-9D5063BF,humanlike,4,s18,reject,True,reject,override,approve,3,8440,10885,,2026-03-16T03:19:57
P-9D5063BF,humanlike,5,s20,approve,True,approve,accept,,2,4119,6636,,2026-03-16T03:20:36
P-9D5063BF,humanlike,6,s17,reject,True,reject,accept,,4,6803,10707,,2026-03-16T03:21:26
P-9D5063BF,humanlike,7,s08,approve,True,approve,accept,,3,10494,13516,,2026-03-16T03:22:11
P-9D5063BF,humanlike,8,s21,approve,True,approve,accept,,1,6867,10482,,2026-03-16T03:22:57
P-9D5063BF,humanlike,9,s14,reject,False,approve,accept,,4,7493,11195,,2026-03-16T03:23:48
P-9D5063BF,humanlike,10,s12,reject,False,approve,accept,,4,3200,4721,,2026-03-16T03:24:23
P-9D5063BF,humanlike,11,s09,reject,True,reject,accept,,3,4206,7983,,2026-03-16T03:25:00
P-9D5063BF,humanlike,12,s15,reject,True,reject,accept,,4,6005,8864,,2026-03-16T03:25:45
P-9D5063BF,humanlike,13,s05,approve,True,approve,override,reject,4,6289,8612,,2026-03-16T03:26:43
P-9D5063BF,humanlike,14,s10,approve,False,reject,accept,,4,4080,7198,,2026-03-16T03:27:16
P-9D5063BF,humanlike,15,s07,approve,False,reject,accept,,4,5010,7305,,2026-03-16T03:28:00
P-9D5063BF,humanlike,16,s04,approve,True,approve,override,reject,4,9903,11827,,2026-03-16T03:28:58
P-9D5063BF,humanlike,17,s16,reject,True,reject,accept,,3,4737,8301,,2026-03-16T03:29:50
P-AD263F53,humanlike,3,s17,approve,False,reject,accept,,4,6558,7601,,2026-03-15T23:52:14
P-AD263F53,humanlike,4,s03,reject,True,reject,accept,,3,8731,12498,,2026-03-15T23:52:45
P-AD263F53,humanlike,5,s04,reject,True,reject,accept,,1,5182,9103,,2026-03-15T23:53:32
P-AD263F53,humanlike,6,s13,approve,True,approve,accept,,4,7270,9725,,2026-03-15T23:54:28
P-AD263F53,humanlike,7,s09,reject,True,reject,accept,,1,6733,8255,,2026-03-15T23:55:09
P-AD263F53,humanlike,8,s21,approve,False,reject,accept,,5,4249,5852,,2026-03-15T23:56:00
P-AD263F53,humanlike,9,s10,approve,False,reject,accept,,4,4508,8201,,2026-03-15T23:56:34
P-AD263F53,humanlike,10,s06,approve,True,approve,accept,,3,4745,6569,,2026-03-15T23:57:17
P-AD263F53,humanlike,11,s14,reject,True,reject,accept,,4,3791,6147,,2026-03-15T23:58:18
P-AD263F53,humanlike,12,s15,reject,True,reject,override,approve,2,5535,8395,,2026-03-15T23:58:46
P-AD263F53,humanlike,13,s22,approve,True,approve,accept,,4,3727,5600,,2026-03-15T23:59:37
P-AD263F53,humanlike,14,s16,reject,True,reject,accept,,4,7054,8081,,2026-03-16T00:00:26
P-AD263F53,humanlike,15,s12,approve,False,reject,accept,,3,7414,9210,,2026-03-16T00:01:20
P-AD263F53,humanlike,16,s11,reject,True,reject,accept,,3,6790,8503,,2026-03-16T00:01:52
P-AD263F53,humanlike,17,s19,approve,True,approve,override,reject,2,5848,6936,,2026-03-16T00:02:35
P-DB55AAF3,humanlike,3,s20,reject,False,approve,accept,,3,7196,9785,,2026-03-20T06:15:20
P-DB55AAF3,humanlike,4,s18,approve,True,approve,accept,,3,3779,6310,,2026-03-20T06:16:01
P-DB55AAF3,humanlike,5,s19,reject,True,reject,accept,,4,2473,6086,,2026-03-20T06:16:48
P-DB55AAF3,humanlike,6,s10,reject,True,reject,override,approve,4,6269,8890,,2026-03-20T06:17:21
P-DB55AAF3,humanlike,7,s07,approve,False,reject,override,reject,2,14452,15799,,2026-03-20T06:18:04
P-DB55AAF3,humanlike,8,s17,approve,True,approve,accept,,4,4109,7014,,2026-03-20T06:19:01
P-DB55AAF3,humanlike,9,s08,reject,True,reject,accept,,3,4382,7419,,2026-03-20T06:19:40
P-DB55AAF3,humanlike,10,s21,reject,True,reject,accept,,4,6753,9223,,2026-03-20T06:20:17
P-DB55AAF3,humanlike,11,s04,approve,True,approve,accept,,5,9036,10968,,2026-03-20T06:21:03
P-DB55AAF3,humanlike,12,s09,reject,True,reject,accept,,3,7802,10150,,2026-03-20T06:21:53
P-DB55AAF3,humanlike,13,s14,reject,True,reject,accept,,3,10546,14020,,2026-03-20T06:22:34
P-DB55AAF3,humanlike,14,s13,reject,True,reject,accept,,1,6158,8384,,2026-03-20T06:23:24
P-DB55AAF3,humanlike,15,s05,approve,False,reject,accept,,5,2272,5956,,2026-03-20T06:24:00
P-DB55AAF3,humanlike,16,s15,reject,False,approve,override,approve,4,8741,10673,,2026-03-20T06:24:52
P-DB55AAF3,humanlike,17,s12,reject,True,reject,accept,,4,4508,7397,,2026-03-20T06:25:40
P-F1446DA1,humanlike,3,s19,reject,True,reject,accept,,3,4831,8595,,2026-03-18T16:47:17
P-F1446DA1,humanlike,4,s21,approve,False,reject,accept,,5,7841,10421,,2026-03-18T16:47:54
P-F1446DA1,humanlike,5,s06,reject,True,reject,accept,,2,5687,8810,,2026-03-18T16:48:30
P-F1446DA1,humanlike,6,s17,reject,True,reject,accept,,2,1500,4213,,2026-03-18T16:49:30
P-F1446DA1,humanlike,7,s20,approve,False,reject,accept,,2,11011,12853,,2026-03-18T16:50:09
P-F1446DA1,humanlike,8,s10,reject,True,reject,accept,,3,7973,9804,,2026-03-18T16:51:01
P-F1446DA1,humanlike,9,s16,reject,True,reject,accept,,2,6151,7413,,2026-03-18T16:51:42
P-F1446DA1,humanlike,10,s04,approve,True,approve,accept,,5,1500,4384,,2026-03-18T16:52:29
P-F1446DA1,humanlike,11,s08,approve,True,approve,accept,,4,4982,8850,,2026-03-18T16:53:09
P-F1446DA1,humanlike,12,s15,reject,False,approve,accept,,4,4845,7614,,2026-03-18T16:53:59
P-F1446DA1,humanlike,13,s13,approve,True,approve,accept,,4,5843,7021,,2026-03-18T16:54:37
P-F1446DA1,humanlike,14,s12,approve,True,approve,override,reject,2,7378,8651,,2026-03-18T16:55:21
P-F1446DA1,humanlike,15,s05,approve,False,reject,override,reject,4,12178,13491,,2026-03-18T16:56:03
P-F1446DA1,humanlike,16,s03,reject,True,reject,accept,,3,4932,6114,,2026-03-18T16:56:59
P-F1446DA1,humanlike,17,s09,reject,True,reject,accept,,5,3162,5786,,2026-03-18T16:57:31
P-EB6D2E2B,humanlike,3,s15,reject,True,reject,accept,,5,7363,9385,,2026-03-20T02:08:11
P-EB6D2E2B,humanlike,4,s11,approve,True,approve,accept,,5,5294,7674,,2026-03-20T02:08:51
P-EB6D2E2B,humanlike,5,s21,approve,True,approve,override,reject,4,6996,10716,,2026-03-20T02:09:35
P-EB6D2E2B,humanlike,6,s16,reject,True,reject,accept,,3,5459,9026,,2026-03-20T02:10:21
P-EB6D2E2B,humanlike,7,s07,approve,False,reject,accept,,2,2083,3958,,2026-03-20T02:11:03
P-EB6D2E2B,humanlike,8,s05,reject,True,reject,accept,,1,7410,9281,,2026-03-20T02:11:59
P-EB6D2E2B,humanlike,9,s10,approve,False,reject,accept,,1,9797,11692,,2026-03-20T02:12:43
P-EB6D2E2B,humanlike,10,s04,approve,True,approve,override,reject,3,12223,15554,,2026-03-20T02:13:20
P-EB6D2E2B,humanlike,11,s03,reject,True,reject,accept,,4,7315,11156,,2026-03-20T02:14:04
P-EB6D2E2B,humanlike,12,s18,reject,True,reject,override,approve,4,12075,15804,,2026-03-20T02:15:00
P-EB6D2E2B,humanlike,13,s13,approve,False,reject,override,reject,2,8312,11935,,2026-03-20T02:15:37
P-EB6D2E2B,humanlike,14,s22,approve,True,approve,accept,,4,6116,7624,,2026-03-20T02:16:24
P-EB6D2E2B,humanlike,15,s14,approve,True,approve,accept,,2,8834,11368,,2026-03-20T02:17:15
P-EB6D2E2B,humanlike,16,s17,reject,False,approve,accept,,3,7572,11542,,2026-03-20T02:18:04
P-EB6D2E2B,humanlike,17,s06,approve,True,approve,accept,,3,6005,9641,,2026-03-20T02:18:31
P-812946B2,humanlike,3,s15,approve,True,approve,accept,,2,5603,8075,,2026-03-22T20:46:12
P-812946B2,humanlike,4,s17,approve,False,reject,accept,,4,3432,5070,,2026-03-22T20:47:00
P-812946B2,humanlike,5,s09,reject,True,reject,accept,,5,5264,7493,,2026-03-22T20:47:49
P-812946B2,humanlike,6,s18,approve,True,approve,accept,,4,6072,8608,,2026-03-22T20:48:32
P-812946B2,humanlike,7,s22,reject,False,approve,accept,,3,4221,5997,,2026-03-22T20:49:00
P-812946B2,humanlike,8,s13,approve,False,reject,accept,,5,1500,4028,,2026-03-22T20:49:57
P-812946B2,humanlike,9,s14,reject,False,approve,accept,,5,5608,8184,,2026-03-22T20:50:48
P-812946B2,humanlike,10,s06,reject,True,reject,accept,,5,10339,12766,,2026-03-22T20:51:31
P-812946B2,humanlike,11,s20,reject,True,reject,accept,,5,5002,7012,,2026-03-22T20:52:07
P-812946B2,humanlike,12,s08,reject,True,reject,accept,,4,3645,7288,,2026-03-22T20:52:49
P-812946B2,humanlike,13,s04,reject,True,reject,accept,,3,7525,10893,,2026-03-22T20:53:35
P-812946B2,humanlike,14,s12,approve,True,approve,accept,,3,2765,6165,,2026-03-22T20:54:17
P-812946B2,humanlike,15,s11,approve,True,approve,accept,,4,7271,11104,,2026-03-22T20:55:09
P-812946B2,humanlike,16,s03,reject,True,reject,accept,,5,2712,6692,,2026-03-22T20:55:47
P-812946B2,humanlike,17,s16,reject,True,reject,accept,,3,6977,9607,,2026-03-22T20:56:39
P-445BA5F8,authority,3,s21,approve,True,approve,accept,,1,4514,6603,,2026-03-17T07:23:00
P-445BA5F8,authority,4,s07,approve,True,approve,accept,,4,2454,3483,,2026-03-17T07:23:57
P-445BA5F8,authority,5,s06,reject,True,reject,override,approve,3,2462,4842,,2026-03-17T07:24:49
P-445BA5F8,authority,6,s10,reject,True,reject,override,approve,4,8720,11199,,2026-03-17T07:25:27
P-445BA5F8,authority,7,s12,reject,True,reject,accept,,5,6322,7334,,2026-03-17T07:26:14
P-445BA5F8,authority,8,s15,approve,True,approve,accept,,1,4179,5682,,2026-03-17T07:27:01
P-445BA5F8,authority,9,s18,approve,False,reject,override,reject,3,11897,15707,,2026-03-17T07:27:45
P-445BA5F8,authority,10,s05,reject,True,reject,accept,,1,5497,7972,,2026-03-17T07:28:16
P-445BA5F8,authority,11,s22,approve,True,approve,accept,,4,5118,7757,,2026-03-17T07:29:19
P-445BA5F8,authority,12,s11,approve,False,reject,override,reject,4,4993,8858,,2026-03-17T07:29:48
P-445BA5F8,authority,13,s09,approve,True,approve,accept,,5,3973,7315,,2026-03-17T07:30:46
P-445BA5F8,authority,14,s19,reject,True,reject,accept,,3,6311,9138,,2026-03-17T07:31:18
P-445BA5F8,authority,15,s17,reject,False,approve,accept,,5,6106,9808,,2026-03-17T07:32:02
P-445BA5F8,authority,16,s08,approve,False,reject,accept,,5,10086,12234,,2026-03-17T07:32:52
P-445BA5F8,authority,17,s04,approve,True,approve,override,reject,3,3383,6572,,2026-03-17T07:33:50
P-DB59BEEA,authority,3,s16,reject,False,approve,override,approve,4,7844,10138,,2026-03-19T11:41:04
P-DB59BEEA,authority,4,s08,reject,True,reject,accept,,4,7149,10612,,2026-03-19T11:41:54
P-DB59BEEA,authority,5,s07,approve,True,approve,accept,,5,4262,5767,,2026-03-19T11:42:38
P-DB59BEEA,authority,6,s06,approve,False,reject,override,reject,2,6184,8726,,2026-03-19T11:43:16
P-DB59BEEA,authority,7,s15,reject,True,reject,override,approve,4,10146,12067,,2026-03-19T11:44:01
P-DB59BEEA,authority,8,s05,approve,True,approve,accept,,3,8005,11705,,2026-03-19T11:44:50
P-DB59BEEA,authority,9,s04,reject,True,reject,override,approve,4,5292,7895,,2026-03-19T11:45:42
P-DB59BEEA,authority,10,s13,reject,True,reject,accept,,4,4793,8037,,2026-03-19T11:46:27
P-DB59BEEA,authority,11,s22,reject,True,reject,accept,,5,5841,9747,,2026-03-19T11:47:09
P-DB59BEEA,authority,12,s17,reject,False,approve,accept,,4,3697,5290,,2026-03-19T11:47:51
P-DB59BEEA,authority,13,s03,approve,True,approve,accept,,4,5772,9129,,2026-03-19T11:48:33
P-DB59BEEA,authority,14,s21,approve,True,approve,accept,,4,1500,3189,,2026-03-19T11:49:16
P-DB59BEEA,authority,15,s20,reject,True,reject,accept,,5,6109,9771,,2026-03-19T11:50:10
P-DB59BEEA,authority,16,s11,reject,False,approve,accept,,1,4237,6223,,2026-03-19T11:50:57
P-DB59BEEA,authority,17,s18,approve,True,approve,accept,,4,4576,8323,,2026-03-19T11:51:32
P-53B98B4A,authority,3,s18,reject,False,approve,accept,,3,4300,7753,,2026-03-25T02:32:05
P-53B98B4A,authority,4,s09,approve,True,approve,accept,,2,5880,7724,,2026-03-25T02:33:05
P-53B98B4A,authority,5,s11,approve,True,approve,accept,,2,8199,9709,,2026-03-25T02:33:46
P-53B98B4A,authority,6,s12,reject,False,approve,accept,,3,11263,12452,,2026-03-25T02:34:31
P-53B98B4A,authority,7,s05,approve,True,approve,accept,,4,4765,8612,,2026-03-25T02:35:10
P-53B98B4A,authority,8,s13,approve,True,approve,accept,,4,4887,8601,,2026-03-25T02:35:46
P-53B98B4A,authority,9,s19,approve,True,approve,accept,,5,7215,10681,,2026-03-25T02:36:47
P-53B98B4A,authority,10,s10,reject,True,reject,accept,,2,7828,9872,,2026-03-25T02:37:23
P-53B98B4A,authority,11,s16,approve,True,approve,accept,,5,9018,12789,,2026-03-25T02:38:13
P-53B98B4A,authority,12,s04,reject,True,reject,accept,,5,5351,9205,,2026-03-25T02:39:05
P-53B98B4A,authority,13,s07,reject,False,approve,accept,,4,7786,9414,,2026-03-25T02:39:40
P-53B98B4A,authority,14,s22,reject,False,approve,accept,,2,5688,7198,,2026-03-25T02:40:32
P-53B98B4A,authority,15,s20,approve,True,approve,accept,,3,7568,9934,,2026-03-25T02:41:08
P-53B98B4A,authority,16,s21,approve,True,approve,accept,,3,8929,10839,,2026-03-25T02:41:57
P-53B98B4A,authority,17,s08,reject,True,reject,accept,,4,4653,7658,,2026-03-25T02:42:33
P-4ECF7560,authority,3,s18,approve,True,approve,accept,,5,4322,6987,,2026-03-23T19:34:10
P-4ECF7560,authority,4,s17,approve,True,approve,accept,,2,7244,10600,,2026-03-23T19:34:46
P-4ECF7560,authority,5,s15,approve,False,reject,accept,,5,3383,6119,,2026-03-23T19:35:46
P-4ECF7560,authority,6,s21,reject,False,approve,override,approve,4,4126,7306,,2026-03-23T19:36:18
P-4ECF7560,authority,7,s05,approve,True,approve,accept,,4,8885,12762,,2026-03-23T19:37:17
P-4ECF7560,authority,8,s12,reject,False,approve,override,approve,4,11744,14907,,2026-03-23T19:38:04
P-4ECF7560,authority,9,s20,reject,True,reject,accept,,5,9015,12159,,2026-03-23T19:38:37
P-4ECF7560,authority,10,s13,reject,True,reject,accept,,5,7207,9938,,2026-03-23T19:39:30
P-4ECF7560,authority,11,s08,reject,True,reject,accept,,4,7762,10970,,2026-03-23T19:40:03
P-4ECF7560,authority,12,s11,reject,True,reject,accept,,4,5388,8717,,2026-03-23T19:40:57
P-4ECF7560,authority,13,s03,approve,False,reject,accept,,4,10820,11965,,2026-03-23T19:41:44
P-4ECF7560,authority,14,s06,reject,True,reject,override,approve,3,7829,10051,,2026-03-23T19:42:26
P-4ECF7560,authority,15,s19,reject,True,reject,accept,,3,6889,8304,,2026-03-23T19:43:13
P-4ECF7560,authority,16,s04,approve,True,approve,accept,,4,1500,4496,,2026-03-23T19:43:45
P-4ECF7560,authority,17,s07,reject,True,reject,accept,,3,6130,8884,,2026-03-23T19:44:35
P-8AC45279,authority,3,s03,reject,True,reject,accept,,4,4193,7638,,2026-03-22T23:12:00
P-8AC45279,authority,4,s07,approve,False,reject,accept,,3,6529,8153,,2026-03-22T23:13:01
P-8AC45279,authority,5,s14,reject,True,reject,accept,,5,7448,9461,,2026-03-22T23:13:43
P-8AC45279,authority,6,s22,reject,False,approve,override,approve,2,11784,15205,,2026-03-22T23:14:35
P-8AC45279,authority,7,s13,approve,True,approve,accept,,3,4612,6399,,2026-03-22T23:15:04
P-8AC45279,authority,8,s11,reject,False,approve,accept,,3,7160,10310,,2026-03-22T23:15:54
P-8AC45279,authority,9,s18,approve,False,reject,accept,,4,1500,4588,,2026-03-22T23:16:43
P-8AC45279,authority,10,s17,reject,True,reject,accept,,5,4327,8241,,2026-03-22T23:17:28
P-8AC45279,authority,11,s15,approve,True,approve,accept,,2,10471,12788,,2026-03-22T23:18:06
P-8AC45279,authority,12,s06,reject,True,reject,accept,,3,7540,10552,,2026-03-22T23:18:56
P-8AC45279,authority,13,s08,approve,True,approve,accept,,3,6723,9203,,2026-03-22T23:19:48
P-8AC45279,authority,14,s20,approve,True,approve,accept,,4,5417,6774,,2026-03-22T23:20:18
P-8AC45279,authority,15,s16,approve,True,approve,accept,,3,8449,11274,,2026-03-22T23:21:03
P-8AC45279,authority,16,s19,reject,True,reject,accept,,5,7054,8881,,2026-03-22T23:22:02
P-8AC45279,authority,17,s12,reject,True,reject,accept,,5,5152,8447,,2026-03-22T23:22:41
P-54DFF547,authority,3,s09,reject,False,approve,accept,,4,4012,6149,,2026-03-15T21:36:04
P-54DFF547,authority,4,s08,approve,True,approve,accept,,5,4758,7947,,2026-03-15T21:36:48
P-54DFF547,authority,5,s21,reject,True,reject,accept,,3,1841,5730,,2026-03-15T21:37:47
P-54DFF547,authority,6,s20,approve,True,approve,accept,,3,3262,4496,,2026-03-15T21:38:35
P-54DFF547,authority,7,s10,reject,True,reject,accept,,3,6893,7957,,2026-03-15T21:39:17
P-54DFF547,authority,8,s07,reject,False,approve,accept,,5,5224,7278,,2026-03-15T21:40:05
P-54DFF547,authority,9,s12,approve,True,approve,accept,,3,6433,9815,,2026-03-15T21:40:50
P-54DFF547,authority,10,s13,reject,True,reject,override,approve,3,8699,11208,,2026-03-15T21:41:19
P-54DFF547,authority,11,s17,approve,True,approve,override,reject,4,4368,6089,,2026-03-15T21:42:06
P-54DFF547,authority,12,s04,approve,True,approve,accept,,3,5527,7254,,2026-03-15T21:42:57
P-54DFF547,authority,13,s05,approve,True,approve,accept,,3,6571,10213,,2026-03-15T21:43:42
P-54DFF547,authority,14,s19,approve,True,approve,accept,,4,5218,7765,,2026-03-15T21:44:27
P-54DFF547,authority,15,s22,reject,False,approve,accept,,1,6066,8083,,2026-03-15T21:45:02
P-54DFF547,authority,16,s06,reject,False,approve,accept,,5,5879,9100,,2026-03-15T21:45:55
P-54DFF547,authority,17,s14,approve,True,approve,override,reject,3,8504,11323,,2026-03-15T21:46:35
P-0CDD137F,authority,3,s12,reject,False,approve,override,approve,4,6802,10616,,2026-03-21T05:18:09
P-0CDD137F,authority,4,s06,reject,True,reject,override,approve,4,5878,9588,,2026-03-21T05:18:56
P-0CDD137F,authority,5,s19,approve,True,approve,accept,,5,4156,5764,,2026-03-21T05:19:50
P-0CDD137F,authority,6,s16,approve,False,reject,accept,,5,6790,8253,,2026-03-21T05:20:33
P-0CDD137F,authority,7,s17,approve,False,reject,accept,,5,7359,9103,,2026-03-21T05:21:12
P-0CDD137F,authority,8,s09,approve,False,reject,accept,,4,7853,11460,,2026-03-21T05:21:55
P-0CDD137F,authority,9,s21,reject,True,reject,accept,,4,9832,12868,,2026-03-21T05:22:47
P-0CDD137F,authority,10,s04,reject,True,reject,override,approve,1,6796,10724,,2026-03-21T05:23:28
P-0CDD137F,authority,11,s05,approve,True,approve,override,reject,3,6705,8668,,2026-03-21T05:24:11
P-0CDD137F,authority,12,s15,reject,True,reject,accept,,5,5926,7377,,2026-03-21T05:24:46
P-0CDD137F,authority,13,s11,approve,True,approve,accept,,3,4699,6289,,2026-03-21T05:25:47
P-0CDD137F,authority,14,s10,approve,True,approve,accept,,2,4943,6507,,2026-03-21T05:26:18
P-0CDD137F,authority,15,s14,approve,True,approve,accept,,4,4989,7728,,2026-03-21T05:27:11
P-0CDD137F,authority,16,s18,reject,True,reject,accept,,5,6147,7794,,2026-03-21T05:27:45
P-0CDD137F,authority,17,s08,approve,True,approve,accept,,4,6768,9473,,2026-03-21T05:28:34
P-C2B24AF4,authority,3,s15,reject,True,reject,accept,,5,6416,10064,,2026-03-17T01:03:13
P-C2B24AF4,authority,4,s20,approve,True,approve,accept,,5,7454,9828,,2026-03-17T01:03:45
P-C2B24AF4,authority,5,s14,approve,True,approve,accept,,4,5018,7284,,2026-03-17T01:04:36
P-C2B24AF4,authority,6,s08,reject,False,approve,accept,,4,5856,7039,,2026-03-17T01:05:33
P-C2B24AF4,authority,7,s17,reject,True,reject,override,approve,4,9922,10956,,2026-03-17T01:06:11
P-C2B24AF4,authority,8,s06,reject,True,reject,accept,,3,3888,6345,,2026-03-17T01:06:49
P-C2B24AF4,authority,9,s13,approve,True,approve,accept,,4,3508,6564,,2026-03-17T01:07:34
P-C2B24AF4,authority,10,s11,approve,False,reject,accept,,1,1500,3160,,2026-03-17T01:08:19
P-C2B24AF4,authority,11,s12,reject,False,approve,accept,,4,6531,8414,,2026-03-17T01:09:20
P-C2B24AF4,authority,12,s22,approve,True,approve,accept,,5,8394,11887,,2026-03-17T01:10:05
P-C2B24AF4,authority,13,s16,reject,True,reject,accept,,3,4696,8249,,2026-03-17T01:10:43
P-C2B24AF4,authority,14,s10,reject,True,reject,accept,,4,6312,7936,,2026-03-17T01:11:33
P-C2B24AF4,authority,15,s07,reject,True,reject,accept,,5,6112,8379,,2026-03-17T01:12:17
P-C2B24AF4,authority,16,s21,approve,True,approve,override,reject,2,4388,6598,,2026-03-17T01:12:50
P-C2B24AF4,authority,17,s03,approve,False,reject,accept,,4,5288,8175,,2026-03-17T01:13:38
P-246FECBB,authority,3,s07,reject,False,approve,override,approve,1,8235,12232,,2026-03-22T00:58:03
P-246FECBB,authority,4,s16,approve,True,approve,accept,,4,3333,4597,,2026-03-22T00:58:55
P-246FECBB,authority,5,s12,reject,True,reject,accept,,2,8304,11165,,2026-03-22T00:59:31
P-246FECBB,authority,6,s05,approve,True,approve,accept,,3,4302,5430,,2026-03-22T01:00:34
P-246FECBB,authority,7,s06,reject,True,reject,accept,,5,5019,6893,,2026-03-22T01:01:01
P-246FECBB,authority,8,s08,approve,False,reject,override,reject,2,8138,11741,,2026-03-22T01:01:50
P-246FECBB,authority,9,s09,reject,True,reject,accept,,5,6217,9066,,2026-03-22T01:02:43
P-246FECBB,authority,10,s03,reject,False,approve,accept,,2,5292,8047,,2026-03-22T01:03:25
P-246FECBB,authority,11,s10,approve,False,reject,accept,,4,5378,8571,,2026-03-22T01:04:05
P-246FECBB,authority,12,s22,reject,True,reject,accept,,5,5294,8591,,2026-03-22T01:05:04
P-246FECBB,authority,13,s14,approve,True,approve,accept,,3,9141,11437,,2026-03-22T01:05:30
P-246FECBB,authority,14,s13,reject,True,reject,accept,,2,7776,11536,,2026-03-22T01:06:28
P-246FECBB,authority,15,s19,approve,True,approve,override,reject,3,12103,15720,,2026-03-22T01:07:18
P-246FECBB,authority,16,s18,reject,True,reject,override,approve,3,8694,10374,,2026-03-22T01:08:04
P-246FECBB,authority,17,s21,approve,True,approve,override,reject,2,9379,11869,,2026-03-22T01:08:30
P-B1BACA01,authority,3,s09,approve,True,approve,accept,,2,6631,9531,,2026-03-16T15:59:13
P-B1BACA01,authority,4,s06,reject,True,reject,accept,,3,7929,10090,,2026-03-16T15:59:53
P-B1BACA01,authority,5,s14,reject,True,reject,override,approve,4,5361,9118,,2026-03-16T16:00:37
P-B1BACA01,authority,6,s19,approve,False,reject,accept,,5,6296,9421,,2026-03-16T16:01:34
P-B1BACA01,authority,7,s20,reject,False,approve,accept,,3,12487,15090,,2026-03-16T16:02:06
P-B1BACA01,authority,8,s11,reject,True,reject,accept,,4,7673,9200,,2026-03-16T16:03:05
P-B1BACA01,authority,9,s08,approve,True,approve,accept,,3,4220,6166,,2026-03-16T16:03:33
P-B1BACA01,authority,10,s15,reject,False,approve,accept,,5,2692,6261,,2026-03-16T16:04:23
P-B1BACA01,authority,11,s17,approve,True,approve,override,reject,1,9370,12161,,2026-03-16T16:05:00
P-B1BACA01,authority,12,s21,approve,True,approve,accept,,5,9197,10519,,2026-03-16T16:06:03
P-B1BACA01,authority,13,s10,reject,False,approve,accept,,5,8904,10668,,2026-03-16T16:06:37
P-B1BACA01,authority,14,s22,approve,True,approve,accept,,3,5008,7556,,2026-03-16T16:07:23
P-B1BACA01,authority,15,s13,reject,True,reject,accept,,1,6862,10235,,2026-03-16T16:08:03
P-B1BACA01,authority,16,s03,approve,True,approve,accept,,5,7201,8581,,2026-03-16T16:08:47
P-B1BACA01,authority,17,s16,reject,True,reject,accept,,2,7082,8171,,2026-03-16T16:09:43
P-4264F01F,authority,3,s17,reject,True,reject,accept,,4,6717,9747,,2026-03-15T12:57:13
P-4264F01F,authority,4,s10,approve,True,approve,accept,,3,5623,9561,,2026-03-15T12:57:53
P-4264F01F,authority,5,s18,reject,True,reject,accept,,3,5556,7399,,2026-03-15T12:58:45
P-4264F01F,authority,6,s15,approve,False,reject,override,reject,4,8801,12352,,2026-03-15T12:59:18
P-4264F01F,authority,7,s05,reject,True,reject,accept,,5,4345,5608,,2026-03-15T13:00:14
P-4264F01F,authority,8,s21,reject,True,reject,accept,,3,6300,9942,,2026-03-15T13:01:01
P-4264F01F,authority,9,s22,approve,False,reject,accept,,4,6234,7995,,2026-03-15T13:01:41
P-4264F01F,authority,10,s14,approve,True,approve,accept,,5,7330,8830,,2026-03-15T13:02:15
P-4264F01F,authority,11,s13,reject,True,reject,accept,,4,6095,8412,,2026-03-15T13:03:07
P-4264F01F,authority,12,s07,approve,True,approve,accept,,2,4979,7117,,2026-03-15T13:04:04
P-4264F01F,authority,13,s16,approve,False,reject,accept,,4,4477,7259,,2026-03-15T13:04:40
P-4264F01F,authority,14,s06,approve,False,reject,accept,,4,4452,6576,,2026-03-15T13:05:28
P-4264F01F,authority,15,s11,reject,True,reject,accept,,3,7445,8532,,2026-03-15T13:06:09
P-4264F01F,authority,16,s03,approve,True,approve,accept,,5,6230,8394,,2026-03-15T13:06:49
P-4264F01F,authority,17,s12,approve,True,approve,override,reject,2,5103,6169,,2026-03-15T13:07:32
P-C25C046C,authority,3,s07,approve,True,approve,accept,,2,8393,10700,,2026-03-20T06:31:04
P-C25C046C,authority,4,s15,reject,True,reject,accept,,4,3668,5653,,2026-03-20T06:32:03
P-C25C046C,authority,5,s19,reject,True,reject,accept,,4,7717,9642,,2026-03-20T06:32:32
P-C25C046C,authority,6,s08,approve,False,reject,accept,,5,5306,7298,,2026-03-20T06:33:35
P-C25C046C,authority,7,s04,reject,False,approve,override,approve,3,7156,9026,,2026-03-20T06:34:00
P-C25C046C,authority,8,s09,reject,True,reject,accept,,2,6392,8246,,2026-03-20T06:35:03
P-C25C046C,authority,9,s12,reject,True,reject,override,approve,3,7702,9332,,2026-03-20T06:35:46
P-C25C046C,authority,10,s10,approve,True,approve,accept,,5,6207,9748,,2026-03-20T06:36:31
P-C25C046C,authority,11,s16,reject,True,reject,accept,,3,6474,8732,,2026-03-20T06:37:18
P-C25C046C,authority,12,s05,reject,False,approve,accept,,2,4783,5850,,2026-03-20T06:37:59
P-C25C046C,authority,13,s11,approve,True,approve,accept,,3,3123,4607,,2026-03-20T06:38:47
P-C25C046C,authority,14,s20,reject,True,reject,accept,,4,6322,8688,,2026-03-20T06:39:16
P-C25C046C,authority,15,s17,reject,True,reject,accept,,4,8399,11129,,2026-03-20T06:40:06
P-C25C046C,authority,16,s13,reject,True,reject,accept,,4,6586,9710,,2026-03-20T06:40:58
P-C25C046C,authority,17,s03,reject,False,approve,accept,,3,2429,3646,,2026-03-20T06:41:31
P-FDD08DEB,authority,3,s11,approve,True,approve,override,reject,2,7796,8835,,2026-03-17T18:46:19
P-FDD08DEB,authority,4,s04,approve,True,approve,accept,,4,7797,8982,,2026-03-17T18:46:45
